time,gyrx,gyry,gyrz,rol,pit,yaw,accx,accy,accz,vCmds
0.000,0.008,-0.123,9.602,0.000,0.000,0.000,-0.010,0.000,0.001,0.000,
0.004,0.000,0.000,0.000,0.000,0.000,0.000,0.000,0.000,0.000,0.000,
0.006,-0.009,-0.007,-0.003,0.000,0.000,0.000,0.003,0.002,-0.002,0.000,
0.008,-0.011,-0.005,-0.007,-0.000,-0.000,-0.000,0.005,0.003,-0.004,0.000,
0.010,-0.004,0.004,-0.010,-0.000,-0.000,-0.000,0.005,0.004,-0.006,0.000,
0.012,0.009,0.015,-0.010,-0.000,-0.000,-0.000,0.003,0.005,-0.008,0.000,
0.014,0.022,0.022,-0.007,-0.000,0.000,-0.000,-0.001,0.005,-0.009,0.000,
0.016,0.031,0.022,-0.000,0.000,0.000,-0.000,-0.006,0.004,-0.009,0.000,
0.018,0.035,0.014,0.007,0.000,0.000,-0.000,-0.009,0.002,-0.008,0.000,
0.020,0.035,0.001,0.016,0.000,0.000,-0.000,-0.011,-0.001,-0.007,0.000,
0.022,0.033,-0.010,0.024,0.000,0.000,-0.000,-0.012,-0.005,-0.005,0.000,
0.024,0.030,-0.016,0.034,0.000,0.000,0.000,-0.012,-0.009,-0.005,0.000,
0.030,0.027,-0.018,0.045,0.000,0.000,0.000,-0.011,-0.011,-0.004,9.000,
0.032,0.017,-0.016,0.058,0.000,0.000,0.000,-0.008,-0.010,-0.002,0.000,
0.034,0.009,-0.013,0.066,0.000,0.000,0.000,-0.004,-0.007,0.002,0.000,
0.036,0.005,-0.011,0.065,0.000,-0.000,0.000,-0.000,-0.005,0.005,0.000,
0.038,0.007,-0.011,0.054,0.000,-0.000,0.001,0.002,-0.004,0.007,0.000,
0.040,0.016,-0.012,0.036,0.000,-0.000,0.001,0.002,-0.003,0.008,0.000,
0.042,0.027,-0.012,0.018,0.001,-0.000,0.001,0.001,-0.001,0.009,0.000,
0.044,0.035,-0.010,0.006,0.001,-0.000,0.001,-0.001,0.002,0.010,0.000,
0.046,0.037,-0.008,0.002,0.001,-0.000,0.001,-0.003,0.005,0.010,0.000,
0.048,0.032,-0.007,0.004,0.001,-0.000,0.001,-0.004,0.009,0.010,0.000,
0.050,0.024,-0.008,0.012,0.001,-0.000,0.001,-0.004,0.012,0.009,0.000,
0.052,0.015,-0.013,0.026,0.001,-0.000,0.001,-0.002,0.014,0.009,0.000,
0.057,0.008,-0.022,0.043,0.001,-0.000,0.001,0.001,0.015,0.009,0.000,
0.059,0.005,-0.036,0.064,0.001,-0.000,0.001,0.006,0.013,0.009,0.000,
0.061,0.008,-0.045,0.075,0.001,-0.000,0.001,0.010,0.011,0.009,0.000,
0.063,0.013,-0.045,0.073,0.001,-0.000,0.001,0.013,0.008,0.007,0.000,
0.065,0.023,-0.034,0.062,0.001,-0.000,0.001,0.012,0.004,0.004,0.000,
0.067,0.035,-0.019,0.047,0.001,-0.001,0.002,0.010,0.002,0.001,0.000,
0.069,0.048,-0.001,0.029,0.001,-0.001,0.002,0.008,0.000,-0.003,0.000,
0.071,0.057,0.013,0.011,0.001,-0.001,0.002,0.006,-0.001,-0.006,0.000,
0.073,0.062,0.020,-0.006,0.001,-0.001,0.002,0.005,-0.002,-0.007,0.000,
0.075,0.063,0.020,-0.018,0.001,-0.001,0.002,0.004,-0.003,-0.006,2.000,
0.077,0.060,0.015,-0.022,0.001,-0.000,0.002,0.004,-0.003,-0.005,4.000,
0.081,0.055,0.005,-0.020,0.002,-0.000,0.002,0.004,-0.002,-0.004,0.000,
0.083,0.048,-0.008,-0.011,0.002,-0.000,0.002,0.005,-0.001,-0.003,0.000,
0.085,0.042,-0.021,-0.000,0.002,-0.000,0.002,0.005,-0.003,-0.001,0.000,
0.087,0.042,-0.025,0.008,0.002,-0.001,0.002,0.005,-0.007,0.000,0.000,
0.089,0.049,-0.017,0.013,0.002,-0.001,0.002,0.006,-0.012,0.001,0.000,
0.091,0.061,-0.000,0.016,0.002,-0.001,0.002,0.007,-0.015,0.001,0.000,
0.093,0.076,0.023,0.018,0.002,-0.001,0.002,0.009,-0.016,-0.001,0.000,
0.095,0.091,0.047,0.018,0.002,-0.001,0.002,0.010,-0.015,-0.002,0.000,
0.097,0.104,0.063,0.016,0.003,-0.000,0.002,0.009,-0.011,-0.004,0.000,
0.099,0.111,0.068,0.014,0.003,-0.000,0.002,0.006,-0.005,-0.004,0.000,
0.101,0.112,0.064,0.011,0.003,-0.000,0.002,0.001,0.000,-0.002,0.000,
0.103,0.107,0.053,0.007,0.003,-0.000,0.002,-0.004,0.005,-0.000,0.000,
0.108,0.097,0.038,0.000,0.003,0.000,0.002,-0.008,0.009,0.001,0.000,
0.110,0.076,0.016,-0.004,0.004,0.000,0.002,-0.008,0.012,0.000,0.000,
0.112,0.052,-0.006,-0.006,0.004,0.000,0.002,-0.006,0.013,-0.002,0.000,
0.114,0.028,-0.025,-0.006,0.004,0.000,0.002,-0.003,0.013,-0.005,0.000,
0.116,0.009,-0.038,-0.002,0.004,0.000,0.002,-0.001,0.012,-0.008,0.000,
0.118,-0.004,-0.047,0.003,0.004,0.000,0.002,0.000,0.010,-0.009,0.000,
0.120,-0.011,-0.051,0.008,0.004,-0.000,0.002,0.002,0.009,-0.009,0.000,
0.122,-0.011,-0.050,0.011,0.004,-0.000,0.002,0.002,0.007,-0.007,0.000,
0.124,-0.006,-0.044,0.010,0.004,-0.000,0.002,0.003,0.004,-0.005,0.000,
0.126,0.003,-0.034,0.007,0.004,-0.000,0.002,0.003,0.002,-0.002,0.000,
0.128,0.013,-0.023,0.003,0.004,-0.000,0.002,0.001,-0.001,0.001,0.000,
0.130,0.022,-0.018,-0.001,0.004,-0.000,0.002,-0.001,-0.003,0.003,0.000,
0.134,0.029,-0.017,-0.005,0.004,-0.001,0.002,-0.004,-0.004,0.004,0.000,
0.136,0.030,-0.015,-0.004,0.004,-0.001,0.002,-0.007,-0.003,0.002,0.000,
0.138,0.024,-0.015,-0.003,0.004,-0.001,0.002,-0.008,-0.003,-0.002,0.000,
0.140,0.018,-0.015,-0.002,0.004,-0.001,0.002,-0.008,-0.002,-0.005,0.000,
0.142,0.016,-0.017,-0.005,0.004,-0.001,0.002,-0.006,-0.001,-0.007,0.000,
0.144,0.020,-0.020,-0.010,0.004,-0.001,0.002,-0.003,-0.001,-0.006,0.000,
0.146,0.027,-0.020,-0.016,0.004,-0.001,0.002,0.000,-0.001,-0.005,0.000,
0.148,0.034,-0.015,-0.021,0.004,-0.001,0.002,0.003,-0.001,-0.003,0.000,
0.150,0.039,-0.007,-0.025,0.004,-0.001,0.002,0.006,-0.002,-0.001,0.000,
0.152,0.042,0.004,-0.029,0.004,-0.001,0.002,0.007,-0.002,0.000,0.000,
0.154,0.040,0.017,-0.032,0.004,-0.001,0.002,0.007,-0.002,0.001,0.000,
0.159,0.035,0.029,-0.036,0.005,-0.001,0.002,0.008,-0.001,0.001,0.000,
0.161,0.023,0.041,-0.043,0.005,-0.001,0.001,0.007,0.002,0.002,0.000,
0.163,0.008,0.046,-0.051,0.005,-0.001,0.001,0.005,0.004,0.004,0.000,
0.165,-0.010,0.044,-0.055,0.005,-0.001,0.001,0.002,0.007,0.005,0.000,
0.167,-0.029,0.036,-0.055,0.005,-0.000,0.001,-0.001,0.009,0.005,0.000,
0.169,-0.044,0.024,-0.053,0.005,-0.000,0.001,-0.005,0.011,0.005,0.000,
0.171,-0.054,0.008,-0.050,0.005,-0.000,0.001,-0.007,0.011,0.004,0.000,
0.173,-0.055,-0.009,-0.046,0.004,-0.000,0.001,-0.008,0.011,0.004,0.000,
0.175,-0.049,-0.023,-0.043,0.004,-0.000,0.001,-0.009,0.010,0.004,0.000,
0.177,-0.037,-0.031,-0.040,0.004,-0.000,0.001,-0.009,0.009,0.004,0.000,
0.179,-0.022,-0.033,-0.037,0.004,-0.000,0.001,-0.009,0.008,0.005,0.000,
0.181,-0.010,-0.034,-0.033,0.004,-0.001,0.001,-0.009,0.007,0.005,0.000,
0.185,0.001,-0.033,-0.028,0.004,-0.001,0.000,-0.009,0.006,0.005,0.000,
0.187,0.017,-0.026,-0.021,0.004,-0.001,0.000,-0.010,0.004,0.005,0.000,
0.189,0.029,-0.016,-0.013,0.004,-0.001,0.000,-0.012,0.004,0.004,0.000,
0.191,0.033,-0.005,-0.007,0.004,-0.001,0.000,-0.014,0.004,0.004,0.000,
0.193,0.030,0.002,-0.006,0.004,-0.001,0.000,-0.014,0.005,0.004,0.000,
0.195,0.022,0.003,-0.007,0.004,-0.001,0.000,-0.013,0.006,0.004,0.000,
0.197,0.014,-0.002,-0.009,0.004,-0.001,0.000,-0.010,0.005,0.004,0.000,
0.199,0.008,-0.013,-0.009,0.004,-0.001,0.000,-0.007,0.005,0.002,0.000,
0.201,0.004,-0.023,-0.006,0.004,-0.001,0.000,-0.003,0.003,0.000,0.000,
0.203,0.004,-0.027,-0.001,0.004,-0.001,0.000,0.001,0.002,-0.000,0.000,
0.205,0.007,-0.022,0.004,0.004,-0.001,0.000,0.005,0.001,-0.001,0.000,
0.207,0.012,-0.004,0.007,0.004,-0.001,0.000,0.008,-0.001,0.000,0.000,
0.212,0.017,0.024,0.009,0.004,-0.001,0.000,0.010,-0.002,0.002,0.000,
0.214,0.020,0.063,0.006,0.004,-0.001,0.000,0.009,-0.002,0.005,0.000,
0.216,0.023,0.098,-0.002,0.005,-0.001,0.000,0.005,-0.001,0.007,0.000,
0.218,0.023,0.117,-0.012,0.005,-0.001,0.000,-0.001,-0.001,0.008,0.000,
0.220,0.021,0.118,-0.018,0.005,-0.000,0.000,-0.007,-0.001,0.008,0.000,
0.222,0.018,0.102,-0.018,0.005,-0.000,0.000,-0.012,-0.001,0.007,0.000,
0.224,0.013,0.074,-0.010,0.005,0.000,0.000,-0.016,-0.001,0.007,0.000,
0.226,0.006,0.038,0.002,0.005,0.000,0.000,-0.017,-0.000,0.008,0.000,
0.228,-0.003,0.002,0.014,0.005,0.000,0.000,-0.016,0.001,0.010,0.000,
0.230,-0.011,-0.031,0.022,0.005,0.000,0.000,-0.014,0.001,0.010,0.000,
0.232,-0.019,-0.058,0.027,0.005,0.000,0.000,-0.012,0.001,0.010,0.000,
0.237,-0.024,-0.075,0.028,0.005,0.000,0.000,-0.009,0.001,0.009,0.000,
0.239,-0.023,-0.074,0.022,0.005,0.000,0.000,-0.005,0.001,0.006,0.000,
0.241,-0.016,-0.056,0.009,0.005,-0.000,0.000,-0.001,0.002,0.004,0.000,
0.243,-0.008,-0.028,-0.007,0.005,-0.000,0.000,0.001,0.004,0.003,0.000,
0.245,-0.001,0.004,-0.021,0.005,-0.000,0.000,0.001,0.005,0.003,0.000,
0.247,0.002,0.033,-0.028,0.005,-0.000,0.000,-0.001,0.005,0.003,0.000,
0.249,-0.001,0.056,-0.029,0.005,-0.000,0.000,-0.004,0.005,0.004,0.000,
0.251,-0.012,0.069,-0.024,0.005,-0.000,0.000,-0.007,0.003,0.004,0.000,
0.253,-0.028,0.069,-0.017,0.005,0.000,0.000,-0.009,0.002,0.005,0.000,
0.255,-0.044,0.060,-0.007,0.004,0.000,0.000,-0.011,0.000,0.006,0.000,
0.257,-0.059,0.048,0.003,0.004,0.000,0.000,-0.011,-0.002,0.006,0.000,
0.259,-0.070,0.033,0.015,0.004,0.000,0.000,-0.009,-0.003,0.005,0.000,
0.263,-0.077,0.016,0.027,0.004,0.000,0.000,-0.006,-0.005,0.003,0.000,
0.265,-0.075,-0.007,0.038,0.004,0.000,0.000,-0.001,-0.008,0.000,0.000,
0.267,-0.066,-0.027,0.045,0.004,0.000,0.000,0.004,-0.010,-0.002,0.000,
0.269,-0.054,-0.039,0.045,0.004,0.000,0.000,0.008,-0.011,-0.003,0.000,
0.271,-0.041,-0.040,0.040,0.004,0.000,0.000,0.011,-0.010,-0.005,0.000,
0.273,-0.027,-0.037,0.031,0.003,0.000,0.001,0.012,-0.009,-0.007,0.000,
0.275,-0.011,-0.031,0.021,0.003,0.000,0.001,0.013,-0.007,-0.009,0.000,
0.277,0.005,-0.026,0.013,0.003,0.000,0.001,0.013,-0.005,-0.011,0.000,
0.279,0.019,-0.021,0.010,0.003,0.000,0.001,0.012,-0.002,-0.013,0.000,
0.281,0.028,-0.017,0.009,0.003,0.000,0.001,0.010,0.002,-0.016,0.000,
0.283,0.031,-0.014,0.011,0.003,0.000,0.001,0.008,0.007,-0.018,0.000,
0.285,0.029,-0.014,0.012,0.004,-0.000,0.001,0.006,0.013,-0.019,0.000,
0.290,0.024,-0.015,0.014,0.004,-0.000,0.001,0.005,0.017,-0.019,0.000,
0.292,0.009,-0.022,0.024,0.004,-0.000,0.001,0.006,0.019,-0.019,0.000,
0.294,-0.010,-0.032,0.037,0.004,-0.000,0.001,0.008,0.018,-0.017,0.000,
0.296,-0.027,-0.039,0.047,0.004,-0.000,0.001,0.010,0.015,-0.014,0.000,
0.298,-0.035,-0.040,0.052,0.004,-0.000,0.001,0.012,0.010,-0.010,0.000,
0.300,-0.033,-0.035,0.048,0.004,-0.000,0.001,0.014,0.005,-0.006,0.000,
0.302,-0.023,-0.026,0.037,0.003,-0.000,0.001,0.014,0.001,-0.002,0.000,
0.304,-0.008,-0.015,0.024,0.003,-0.000,0.001,0.012,-0.001,0.002,0.000,
0.306,0.009,-0.005,0.013,0.003,-0.001,0.001,0.010,-0.002,0.004,0.000,
0.308,0.026,0.005,0.005,0.003,-0.001,0.001,0.007,-0.002,0.005,0.000,
0.310,0.041,0.011,0.000,0.003,-0.001,0.001,0.004,-0.001,0.006,0.000,
0.314,0.050,0.009,-0.005,0.004,-0.000,0.001,0.000,0.000,0.006,0.000,
0.316,0.051,-0.004,-0.010,0.004,-0.000,0.001,-0.004,0.001,0.004,0.000,
0.318,0.046,-0.019,-0.013,0.004,-0.000,0.001,-0.008,0.003,0.001,0.000,
0.320,0.039,-0.028,-0.012,0.004,-0.001,0.001,-0.010,0.005,-0.002,0.000,
0.322,0.030,-0.031,-0.008,0.004,-0.001,0.001,-0.009,0.008,-0.004,0.000,
0.324,0.019,-0.029,-0.002,0.004,-0.001,0.001,-0.008,0.010,-0.006,0.000,
0.326,0.008,-0.024,0.003,0.004,-0.001,0.001,-0.007,0.011,-0.008,0.000,
0.328,-0.001,-0.018,0.007,0.004,-0.001,0.001,-0.004,0.012,-0.009,0.000,
0.330,-0.006,-0.011,0.009,0.004,-0.001,0.001,-0.002,0.011,-0.010,0.000,
0.332,-0.004,-0.002,0.009,0.004,-0.001,0.001,-0.001,0.011,-0.009,0.000,
0.334,0.000,0.008,0.008,0.004,-0.001,0.001,0.000,0.010,-0.007,0.000,
0.336,0.005,0.017,0.007,0.004,-0.001,0.001,0.001,0.010,-0.005,0.000,
0.341,0.008,0.023,0.006,0.004,-0.001,0.001,0.001,0.010,-0.004,0.000,
0.343,0.010,0.018,0.012,0.004,-0.001,0.001,0.001,0.009,-0.005,0.000,
0.345,0.010,0.006,0.020,0.004,-0.001,0.001,0.000,0.006,-0.006,0.000,
0.347,0.006,-0.008,0.028,0.004,-0.001,0.001,-0.000,0.001,-0.006,0.000,
0.349,-0.001,-0.022,0.033,0.004,-0.001,0.001,0.000,-0.003,-0.005,0.000,
0.351,-0.008,-0.032,0.037,0.004,-0.001,0.002,0.002,-0.007,-0.003,0.000,
0.353,-0.014,-0.036,0.037,0.004,-0.001,0.002,0.003,-0.009,-0.001,0.000,
0.355,-0.016,-0.033,0.034,0.004,-0.001,0.002,0.005,-0.011,0.000,0.000,
0.357,-0.011,-0.023,0.029,0.004,-0.001,0.002,0.005,-0.012,0.001,0.000,
0.359,0.000,-0.010,0.022,0.004,-0.001,0.002,0.004,-0.012,-0.000,0.000,
0.361,0.015,0.002,0.015,0.004,-0.001,0.002,0.004,-0.012,-0.002,0.000,
0.365,0.032,0.011,0.007,0.004,-0.001,0.002,0.004,-0.010,-0.004,0.000,
0.367,0.045,0.016,-0.001,0.004,-0.001,0.002,0.003,-0.008,-0.006,0.000,
0.369,0.051,0.018,-0.006,0.004,-0.001,0.002,0.002,-0.007,-0.007,0.000,
0.371,0.049,0.014,-0.009,0.004,-0.001,0.002,0.000,-0.007,-0.007,0.000,
0.373,0.040,0.004,-0.007,0.004,-0.001,0.002,-0.001,-0.007,-0.006,0.000,
0.375,0.025,-0.013,-0.000,0.004,-0.001,0.002,-0.003,-0.007,-0.004,0.000,
0.377,0.008,-0.032,0.011,0.005,-0.001,0.002,-0.004,-0.008,-0.002,0.000,
0.379,-0.005,-0.051,0.023,0.005,-0.001,0.002,-0.006,-0.009,-0.001,0.000,
0.381,-0.011,-0.065,0.033,0.005,-0.001,0.002,-0.007,-0.010,-0.001,0.000,
0.383,-0.012,-0.072,0.039,0.005,-0.001,0.002,-0.008,-0.012,-0.002,0.000,
0.385,-0.007,-0.071,0.041,0.004,-0.001,0.002,-0.009,-0.013,-0.004,0.000,
0.387,0.001,-0.063,0.039,0.004,-0.001,0.002,-0.010,-0.014,-0.007,0.000,
0.392,0.010,-0.048,0.034,0.004,-0.002,0.002,-0.009,-0.013,-0.011,0.000,
0.394,0.023,-0.019,0.026,0.004,-0.002,0.002,-0.007,-0.011,-0.015,0.000,
0.396,0.036,0.011,0.018,0.005,-0.002,0.002,-0.005,-0.009,-0.017,0.000,
0.398,0.043,0.033,0.012,0.005,-0.002,0.002,-0.005,-0.006,-0.016,0.000,
0.400,0.046,0.042,0.008,0.005,-0.002,0.002,-0.004,-0.003,-0.013,0.000,
0.402,0.045,0.039,0.007,0.005,-0.002,0.002,-0.003,-0.001,-0.010,0.000,
0.404,0.040,0.026,0.006,0.005,-0.001,0.002,-0.003,0.001,-0.008,0.000,
0.406,0.032,0.006,0.007,0.005,-0.001,0.002,-0.002,0.003,-0.007,0.000,
0.408,0.019,-0.013,0.010,0.005,-0.001,0.002,-0.002,0.004,-0.008,0.000,
0.410,0.005,-0.029,0.013,0.005,-0.001,0.002,-0.001,0.003,-0.009,0.000,
0.412,-0.008,-0.041,0.012,0.005,-0.001,0.003,-0.001,0.002,-0.011,0.000,
0.414,-0.015,-0.049,0.008,0.005,-0.002,0.003,0.000,0.000,-0.012,0.000,
0.418,-0.019,-0.051,0.001,0.005,-0.002,0.003,0.002,-0.001,-0.012,0.000,
0.420,-0.018,-0.043,-0.012,0.005,-0.002,0.003,0.004,-0.002,-0.011,0.000,
0.422,-0.014,-0.029,-0.027,0.005,-0.002,0.003,0.005,-0.002,-0.009,0.000,
0.424,-0.008,-0.014,-0.039,0.005,-0.002,0.002,0.004,-0.001,-0.007,0.000,
0.426,-0.001,-0.001,-0.046,0.005,-0.002,0.002,0.003,-0.001,-0.004,0.000,
0.428,0.004,0.009,-0.050,0.005,-0.002,0.002,0.002,0.000,-0.003,0.000,
0.430,0.007,0.012,-0.048,0.005,-0.002,0.002,0.001,0.002,-0.002,0.000,
0.432,0.008,0.007,-0.042,0.005,-0.002,0.002,0.002,0.004,-0.002,0.000,
0.434,0.007,-0.002,-0.033,0.005,-0.002,0.002,0.003,0.006,-0.002,0.000,
0.436,0.006,-0.015,-0.021,0.005,-0.002,0.002,0.004,0.007,-0.000,0.000,
0.438,0.006,-0.026,-0.010,0.005,-0.002,0.002,0.003,0.008,0.001,0.000,
0.443,0.009,-0.034,0.000,0.005,-0.002,0.002,0.002,0.009,0.003,0.000,
0.445,0.016,-0.030,0.014,0.005,-0.002,0.002,0.001,0.009,0.003,0.000,
0.447,0.025,-0.021,0.026,0.005,-0.002,0.002,0.001,0.009,0.002,0.000,
0.449,0.036,-0.008,0.033,0.005,-0.002,0.002,0.002,0.009,0.002,0.000,
0.451,0.045,0.006,0.039,0.005,-0.002,0.002,0.004,0.008,0.003,0.000,
0.453,0.050,0.018,0.042,0.005,-0.002,0.002,0.005,0.007,0.004,0.000,
0.455,0.052,0.028,0.043,0.005,-0.002,0.002,0.006,0.007,0.005,0.000,
0.457,0.054,0.033,0.039,0.005,-0.002,0.002,0.006,0.007,0.005,0.000,
0.459,0.053,0.031,0.031,0.006,-0.002,0.002,0.005,0.006,0.005,0.000,
0.461,0.048,0.024,0.020,0.006,-0.002,0.002,0.003,0.004,0.005,0.000,
0.463,0.039,0.016,0.013,0.006,-0.002,0.002,-0.001,0.002,0.004,0.000,
0.465,0.027,0.010,0.010,0.006,-0.002,0.003,-0.004,0.002,0.003,0.000,
0.469,0.014,0.003,0.011,0.006,-0.002,0.003,-0.006,0.002,0.002,0.000,
0.471,-0.004,-0.003,0.012,0.006,-0.002,0.003,-0.005,0.003,0.002,0.000,
0.473,-0.020,-0.005,0.009,0.006,-0.002,0.003,-0.002,0.003,0.001,0.000,
0.475,-0.029,-0.001,0.002,0.006,-0.002,0.003,0.001,0.003,0.000,0.000,
0.477,-0.029,0.011,-0.009,0.006,-0.002,0.003,0.003,0.002,-0.001,0.000,
0.479,-0.024,0.023,-0.019,0.006,-0.002,0.003,0.005,0.000,-0.002,0.000,
0.481,-0.018,0.034,-0.027,0.006,-0.002,0.003,0.007,-0.001,-0.003,0.000,
0.483,-0.014,0.041,-0.035,0.006,-0.002,0.002,0.007,-0.001,-0.004,0.000,
0.485,-0.011,0.043,-0.041,0.006,-0.002,0.002,0.006,0.000,-0.005,0.000,
0.487,-0.008,0.036,-0.043,0.006,-0.002,0.002,0.005,0.002,-0.005,0.000,
0.489,-0.008,0.022,-0.041,0.006,-0.001,0.002,0.003,0.004,-0.005,0.000,
0.491,-0.010,0.009,-0.038,0.006,-0.001,0.002,0.003,0.007,-0.005,0.000,
0.496,-0.014,-0.004,-0.030,0.006,-0.001,0.002,0.003,0.010,-0.005,0.000,
0.498,-0.021,-0.021,-0.022,0.006,-0.001,0.002,0.005,0.013,-0.003,0.000,
0.500,-0.025,-0.037,-0.018,0.005,-0.001,0.002,0.007,0.014,-0.000,0.000,
0.502,-0.025,-0.049,-0.017,0.005,-0.002,0.002,0.007,0.014,0.003,0.000,
0.504,-0.021,-0.054,-0.019,0.005,-0.002,0.002,0.007,0.013,0.006,0.000,
0.506,-0.016,-0.051,-0.023,0.005,-0.002,0.002,0.008,0.013,0.009,0.000,
0.508,-0.010,-0.041,-0.029,0.005,-0.002,0.002,0.010,0.012,0.010,0.000,
0.510,-0.002,-0.025,-0.037,0.005,-0.002,0.002,0.012,0.012,0.011,0.000,
0.512,0.007,-0.006,-0.046,0.005,-0.002,0.002,0.012,0.012,0.012,0.000,
0.514,0.016,0.013,-0.053,0.005,-0.002,0.002,0.010,0.013,0.013,0.000,
0.516,0.025,0.025,-0.058,0.005,-0.002,0.002,0.006,0.013,0.014,0.000,
0.520,0.029,0.025,-0.060,0.005,-0.002,0.001,0.002,0.014,0.015,0.000,
0.522,0.023,0.008,-0.059,0.005,-0.002,0.001,-0.001,0.014,0.014,0.000,
0.524,0.008,-0.015,-0.053,0.005,-0.002,0.001,-0.004,0.013,0.012,0.000,
0.526,-0.011,-0.034,-0.045,0.006,-0.002,0.001,-0.006,0.012,0.011,0.000,
0.528,-0.027,-0.043,-0.037,0.005,-0.002,0.001,-0.006,0.009,0.010,0.000,
0.530,-0.039,-0.043,-0.031,0.005,-0.002,0.001,-0.003,0.005,0.011,0.000,
0.532,-0.045,-0.037,-0.028,0.005,-0.002,0.001,0.001,0.001,0.012,0.000,
0.534,-0.045,-0.029,-0.025,0.005,-0.002,0.001,0.006,-0.002,0.013,0.000,
0.536,-0.041,-0.019,-0.023,0.005,-0.002,0.001,0.010,-0.005,0.014,0.000,
0.538,-0.036,-0.006,-0.023,0.005,-0.002,0.001,0.013,-0.005,0.013,0.000,
0.540,-0.030,0.009,-0.023,0.005,-0.002,0.001,0.013,-0.005,0.013,0.000,
0.542,-0.021,0.024,-0.023,0.005,-0.002,0.001,0.012,-0.003,0.012,0.000,
0.547,-0.010,0.034,-0.023,0.005,-0.002,0.001,0.009,-0.003,0.011,0.000,
0.549,0.006,0.029,-0.021,0.005,-0.002,0.000,0.004,-0.002,0.009,0.000,
0.551,0.017,0.016,-0.018,0.005,-0.002,0.000,-0.000,-0.003,0.006,0.000,
0.553,0.020,0.000,-0.013,0.005,-0.002,0.000,-0.002,-0.002,0.003,0.000,
0.555,0.017,-0.015,-0.006,0.005,-0.002,0.000,-0.002,-0.002,-0.001,0.000,
0.557,0.010,-0.028,0.004,0.005,-0.002,0.000,0.001,-0.001,-0.005,0.000,
0.559,0.007,-0.041,0.014,0.005,-0.002,0.000,0.004,-0.000,-0.007,0.000,
0.561,0.008,-0.052,0.021,0.005,-0.002,0.000,0.006,-0.000,-0.008,0.000,
0.563,0.013,-0.060,0.022,0.005,-0.002,0.000,0.006,-0.001,-0.007,0.000,
0.565,0.022,-0.061,0.019,0.005,-0.002,0.000,0.004,-0.003,-0.006,0.000,
0.567,0.031,-0.053,0.010,0.005,-0.003,0.001,0.002,-0.005,-0.004,0.000,
0.569,0.039,-0.038,-0.003,0.005,-0.003,0.001,-0.001,-0.006,-0.003,0.000,
0.573,0.044,-0.020,-0.019,0.005,-0.003,0.001,-0.003,-0.007,-0.001,0.000,
0.575,0.047,0.006,-0.033,0.005,-0.003,0.001,-0.007,-0.007,0.001,0.000,
0.577,0.047,0.026,-0.040,0.005,-0.003,0.000,-0.012,-0.004,0.002,0.000,
0.579,0.043,0.035,-0.038,0.006,-0.003,0.000,-0.016,-0.001,0.002,0.000,
0.581,0.037,0.035,-0.030,0.006,-0.003,0.000,-0.019,0.002,0.001,0.000,
0.583,0.029,0.029,-0.021,0.006,-0.003,0.000,-0.020,0.003,0.001,0.000,
0.585,0.018,0.024,-0.012,0.006,-0.003,0.000,-0.018,0.004,0.002,0.000,
0.587,0.005,0.021,-0.006,0.006,-0.002,0.000,-0.014,0.003,0.004,0.000,
0.589,-0.009,0.020,-0.004,0.006,-0.002,0.000,-0.010,0.002,0.007,0.000,
0.591,-0.022,0.019,-0.006,0.006,-0.002,0.000,-0.006,-0.000,0.010,0.000,
0.593,-0.029,0.017,-0.010,0.006,-0.002,0.000,-0.003,-0.001,0.012,0.000,
0.598,-0.032,0.015,-0.013,0.006,-0.002,0.000,0.000,-0.001,0.012,0.000,
0.600,-0.032,0.013,-0.017,0.006,-0.002,0.000,0.003,-0.000,0.011,0.000,
0.602,-0.030,0.010,-0.023,0.006,-0.002,0.000,0.005,0.002,0.010,0.000,
0.604,-0.028,0.007,-0.029,0.006,-0.002,0.000,0.005,0.003,0.009,0.000,
0.606,-0.027,0.005,-0.035,0.005,-0.002,-0.000,0.004,0.004,0.008,0.000,
0.608,-0.030,0.004,-0.041,0.005,-0.002,-0.000,0.002,0.006,0.007,0.000,
0.610,-0.035,0.003,-0.044,0.005,-0.002,-0.000,-0.001,0.007,0.007,0.000,
0.612,-0.041,-0.002,-0.042,0.005,-0.002,-0.000,-0.003,0.008,0.006,0.000,
0.614,-0.046,-0.010,-0.037,0.005,-0.002,-0.000,-0.002,0.007,0.006,0.000,
0.616,-0.049,-0.020,-0.028,0.005,-0.002,-0.000,-0.001,0.005,0.006,0.000,
0.618,-0.047,-0.028,-0.017,0.005,-0.002,-0.001,0.001,0.002,0.005,0.000,
0.620,-0.037,-0.031,-0.003,0.005,-0.002,-0.001,0.003,-0.001,0.004,0.000,
0.624,-0.023,-0.031,0.009,0.005,-0.002,-0.001,0.003,-0.002,0.003,0.000,
0.626,0.002,-0.024,0.018,0.005,-0.002,-0.001,0.000,-0.001,0.002,0.000,
0.628,0.025,-0.015,0.020,0.005,-0.002,-0.000,-0.003,0.003,-0.001,0.000,
0.630,0.039,-0.007,0.014,0.005,-0.003,-0.000,-0.005,0.007,-0.003,0.000,
0.632,0.042,-0.003,0.003,0.005,-0.003,-0.000,-0.005,0.011,-0.006,0.000,
0.634,0.033,-0.003,-0.008,0.005,-0.003,-0.000,-0.004,0.012,-0.008,0.000,
0.636,0.017,-0.006,-0.015,0.005,-0.003,-0.000,-0.002,0.013,-0.010,0.000,
0.638,-0.001,-0.013,-0.019,0.005,-0.003,-0.000,-0.000,0.013,-0.011,0.000,
0.640,-0.019,-0.024,-0.020,0.005,-0.003,-0.001,0.002,0.012,-0.011,0.000,
0.642,-0.037,-0.037,-0.019,0.005,-0.003,-0.001,0.004,0.011,-0.011,0.000,
0.644,-0.053,-0.048,-0.018,0.005,-0.003,-0.001,0.006,0.009,-0.010,0.000,
0.649,-0.063,-0.053,-0.016,0.005,-0.003,-0.001,0.008,0.006,-0.009,0.000,
0.651,-0.066,-0.053,-0.014,0.005,-0.003,-0.001,0.011,0.003,-0.006,0.000,
0.653,-0.061,-0.047,-0.013,0.005,-0.003,-0.001,0.013,0.000,-0.004,0.000,
0.655,-0.050,-0.037,-0.011,0.005,-0.003,-0.001,0.013,-0.001,-0.002,0.000,
0.657,-0.038,-0.024,-0.011,0.004,-0.003,-0.001,0.012,-0.002,-0.001,0.000,
0.659,-0.027,-0.010,-0.012,0.004,-0.003,-0.001,0.009,-0.001,0.000,0.000,
0.661,-0.019,0.002,-0.011,0.004,-0.003,-0.001,0.007,0.000,0.002,0.000,
0.663,-0.013,0.011,-0.005,0.004,-0.003,-0.001,0.004,0.003,0.003,0.000,
0.665,-0.008,0.014,0.006,0.004,-0.003,-0.001,0.002,0.005,0.004,0.000,
0.667,-0.006,0.016,0.019,0.004,-0.003,-0.001,0.001,0.007,0.005,0.000,
0.669,-0.005,0.016,0.032,0.004,-0.003,-0.001,-0.000,0.008,0.006,0.000,
0.671,-0.008,0.014,0.043,0.004,-0.003,-0.001,0.000,0.009,0.008,0.000,
0.676,-0.013,0.010,0.051,0.004,-0.003,-0.001,0.001,0.010,0.009,0.000,
0.678,-0.024,0.011,0.055,0.004,-0.003,-0.001,0.005,0.007,0.010,0.000,
0.680,-0.037,0.020,0.053,0.004,-0.003,-0.000,0.010,0.002,0.011,0.000,
0.682,-0.046,0.034,0.045,0.004,-0.003,-0.000,0.014,-0.001,0.011,0.000,
0.684,-0.048,0.048,0.034,0.004,-0.003,-0.000,0.018,-0.001,0.010,0.000,
0.686,-0.043,0.060,0.021,0.004,-0.003,-0.000,0.019,-0.001,0.009,0.000,
0.688,-0.034,0.067,0.010,0.004,-0.003,-0.000,0.018,0.001,0.008,0.000,
0.690,-0.024,0.069,0.002,0.004,-0.003,-0.000,0.014,0.002,0.007,0.000,
0.692,-0.014,0.064,-0.002,0.004,-0.002,-0.000,0.010,0.003,0.007,0.000,
0.694,-0.009,0.050,-0.005,0.004,-0.002,-0.000,0.006,0.004,0.009,0.000,
0.696,-0.007,0.031,-0.005,0.004,-0.002,-0.000,0.003,0.004,0.010,0.000,
0.698,-0.010,0.010,-0.002,0.004,-0.002,-0.000,0.001,0.003,0.010,0.000,
0.702,-0.017,-0.010,0.004,0.004,-0.002,-0.000,-0.000,0.001,0.008,0.000,
0.704,-0.030,-0.034,0.012,0.004,-0.002,-0.000,0.000,-0.003,0.004,0.000,
0.706,-0.042,-0.054,0.019,0.003,-0.002,-0.000,0.002,-0.008,-0.001,0.000,
0.708,-0.049,-0.066,0.024,0.003,-0.002,-0.000,0.004,-0.013,-0.006,0.000,
0.710,-0.050,-0.064,0.025,0.003,-0.002,0.000,0.005,-0.015,-0.009,0.000,
0.712,-0.043,-0.053,0.023,0.003,-0.003,0.000,0.007,-0.016,-0.010,0.000,
0.714,-0.031,-0.036,0.017,0.003,-0.003,0.000,0.008,-0.016,-0.009,0.000,
0.716,-0.019,-0.020,0.013,0.003,-0.003,0.000,0.008,-0.016,-0.006,0.000,
0.718,-0.006,-0.007,0.012,0.003,-0.003,0.000,0.007,-0.015,-0.003,0.000,
0.720,0.005,0.002,0.014,0.003,-0.003,0.000,0.004,-0.014,-0.001,0.000,
0.722,0.014,0.009,0.017,0.003,-0.003,0.000,0.000,-0.013,0.000,0.000,
0.727,0.022,0.012,0.019,0.003,-0.003,0.000,-0.004,-0.009,0.000,0.000,
0.729,0.028,0.002,0.015,0.003,-0.003,0.000,-0.006,-0.003,-0.001,0.000,
0.731,0.028,-0.016,0.008,0.003,-0.003,0.000,-0.007,0.003,-0.002,0.000,
0.733,0.022,-0.032,0.000,0.003,-0.003,0.000,-0.005,0.007,-0.002,0.000,
0.735,0.014,-0.044,-0.004,0.003,-0.003,0.000,-0.001,0.007,-0.002,0.000,
0.737,0.005,-0.052,-0.003,0.003,-0.003,0.000,0.004,0.005,-0.000,0.000,
0.739,-0.002,-0.057,0.000,0.003,-0.003,0.000,0.008,0.003,0.003,0.000,
0.741,-0.007,-0.059,0.004,0.003,-0.003,0.000,0.010,-0.000,0.006,0.000,
0.743,-0.010,-0.058,0.005,0.003,-0.003,0.000,0.011,-0.003,0.009,0.000,
0.745,-0.011,-0.056,0.002,0.003,-0.003,0.000,0.011,-0.005,0.010,0.000,
0.747,-0.013,-0.052,-0.003,0.003,-0.004,0.000,0.010,-0.005,0.009,0.000,
0.749,-0.016,-0.042,-0.009,0.003,-0.004,0.000,0.009,-0.003,0.007,0.000,
0.753,-0.018,-0.027,-0.015,0.003,-0.004,0.000,0.008,-0.001,0.005,0.000,
0.755,-0.019,-0.008,-0.023,0.003,-0.004,0.000,0.006,0.004,0.003,0.000,
0.757,-0.019,0.007,-0.029,0.003,-0.004,0.000,0.004,0.009,0.002,0.000,
0.759,-0.017,0.017,-0.030,0.003,-0.004,0.000,0.002,0.012,0.001,0.000,
0.761,-0.016,0.020,-0.029,0.003,-0.004,0.000,0.001,0.013,0.001,0.000,
0.763,-0.013,0.019,-0.026,0.003,-0.004,0.000,0.001,0.012,0.001,0.000,
0.765,-0.009,0.016,-0.025,0.003,-0.004,0.000,0.001,0.011,0.002,0.000,
0.767,-0.003,0.013,-0.026,0.003,-0.004,-0.000,0.002,0.010,0.003,0.000,
0.769,0.001,0.012,-0.027,0.003,-0.004,-0.000,0.004,0.009,0.004,0.000,
0.771,0.004,0.012,-0.028,0.003,-0.004,-0.000,0.007,0.008,0.004,0.000,
0.773,0.006,0.012,-0.027,0.003,-0.004,-0.000,0.008,0.007,0.005,0.000,
0.775,0.010,0.013,-0.024,0.003,-0.004,-0.000,0.009,0.006,0.004,0.000,
0.780,0.016,0.015,-0.018,0.003,-0.004,-0.000,0.010,0.005,0.002,0.000,
0.782,0.019,0.022,-0.007,0.003,-0.003,-0.000,0.011,0.004,-0.000,0.000,
0.784,0.017,0.034,0.005,0.003,-0.003,-0.000,0.010,0.003,-0.002,0.000,
0.786,0.011,0.045,0.013,0.003,-0.003,-0.000,0.009,0.001,-0.003,0.000,
0.788,0.006,0.054,0.015,0.003,-0.003,-0.000,0.008,0.000,-0.004,0.000,
0.790,0.004,0.058,0.013,0.003,-0.003,-0.000,0.007,-0.001,-0.005,0.000,
0.792,0.002,0.055,0.010,0.003,-0.003,-0.000,0.006,-0.001,-0.006,0.000,
0.794,-0.003,0.046,0.008,0.003,-0.003,-0.000,0.006,0.001,-0.006,0.000,
0.796,-0.011,0.033,0.009,0.003,-0.003,-0.000,0.006,0.002,-0.005,0.000,
0.798,-0.021,0.019,0.010,0.003,-0.003,-0.000,0.007,0.003,-0.004,0.000,
0.800,-0.031,0.010,0.009,0.003,-0.003,-0.000,0.007,0.001,-0.003,0.000,
0.804,-0.038,0.008,0.005,0.003,-0.003,-0.000,0.008,-0.000,-0.003,0.000,
0.806,-0.040,0.012,-0.001,0.003,-0.003,-0.000,0.009,-0.003,-0.004,0.000,
0.808,-0.039,0.018,-0.006,0.003,-0.003,-0.000,0.009,-0.006,-0.004,0.000,
0.810,-0.036,0.022,-0.008,0.003,-0.003,-0.000,0.008,-0.006,-0.004,0.000,
0.812,-0.032,0.020,-0.006,0.003,-0.003,-0.000,0.005,-0.005,-0.005,0.000,
0.814,-0.028,0.014,-0.004,0.003,-0.003,-0.000,0.002,-0.002,-0.005,0.000,
0.816,-0.029,0.006,-0.001,0.003,-0.003,-0.000,0.000,0.001,-0.006,0.000,
0.818,-0.037,-0.004,0.003,0.002,-0.003,-0.000,-0.001,0.003,-0.006,0.000,
0.820,-0.050,-0.015,0.007,0.002,-0.003,-0.000,-0.001,0.004,-0.007,0.000,
0.822,-0.064,-0.022,0.008,0.002,-0.003,-0.000,-0.001,0.003,-0.008,0.000,
0.824,-0.075,-0.021,0.008,0.002,-0.003,-0.000,0.000,0.001,-0.009,0.000,
0.826,-0.080,-0.010,0.005,0.002,-0.003,-0.000,0.002,-0.002,-0.009,0.000,
0.831,-0.077,0.007,0.001,0.002,-0.003,-0.000,0.004,-0.005,-0.009,0.000,
0.833,-0.052,0.032,-0.012,0.002,-0.003,-0.000,0.005,-0.008,-0.008,0.000,
0.835,-0.017,0.052,-0.027,0.002,-0.003,-0.000,0.006,-0.011,-0.007,0.000,
0.837,0.018,0.062,-0.039,0.002,-0.003,-0.000,0.006,-0.011,-0.006,0.000,
0.839,0.048,0.064,-0.044,0.002,-0.002,-0.000,0.005,-0.008,-0.005,0.000,
0.841,0.066,0.059,-0.043,0.002,-0.002,-0.000,0.004,-0.003,-0.005,0.000,
0.843,0.074,0.048,-0.041,0.002,-0.002,-0.000,0.002,0.004,-0.005,0.000,
0.845,0.074,0.032,-0.039,0.002,-0.002,-0.001,0.000,0.010,-0.006,0.000,
0.847,0.067,0.015,-0.038,0.002,-0.002,-0.001,-0.001,0.015,-0.005,0.000,
0.849,0.053,-0.002,-0.035,0.002,-0.002,-0.001,-0.002,0.018,-0.004,0.000,
0.851,0.033,-0.019,-0.031,0.002,-0.002,-0.001,-0.001,0.018,-0.003,0.000,
0.853,0.010,-0.035,-0.024,0.002,-0.002,-0.001,-0.000,0.017,-0.001,0.000,
0.857,-0.007,-0.049,-0.016,0.002,-0.002,-0.001,0.002,0.015,0.001,0.000,
0.859,-0.014,-0.053,-0.006,0.002,-0.002,-0.001,0.006,0.012,0.002,0.000,
0.861,-0.009,-0.047,0.002,0.002,-0.002,-0.001,0.008,0.009,0.004,0.000,
0.863,0.003,-0.033,0.007,0.002,-0.002,-0.001,0.009,0.007,0.006,0.000,
0.865,0.018,-0.014,0.008,0.002,-0.002,-0.001,0.008,0.005,0.007,0.000,
0.867,0.031,0.007,0.004,0.002,-0.002,-0.001,0.007,0.003,0.007,0.000,
0.869,0.041,0.024,-0.002,0.002,-0.002,-0.001,0.006,0.002,0.006,0.000,
0.871,0.046,0.031,-0.007,0.003,-0.002,-0.001,0.004,0.001,0.005,0.000,
0.873,0.048,0.028,-0.011,0.003,-0.002,-0.001,0.002,-0.000,0.003,0.000,
0.875,0.046,0.018,-0.015,0.003,-0.002,-0.001,-0.000,-0.000,0.001,0.000,
0.877,0.042,0.006,-0.016,0.003,-0.002,-0.001,-0.002,0.000,0.000,0.000,
0.882,0.038,-0.007,-0.016,0.003,-0.002,-0.001,-0.004,0.001,0.000,0.000,
0.884,0.034,-0.021,-0.012,0.003,-0.002,-0.001,-0.004,0.002,0.001,0.000,
0.886,0.035,-0.029,-0.005,0.003,-0.002,-0.001,-0.003,0.002,0.001,0.000,
0.888,0.045,-0.030,0.001,0.003,-0.002,-0.001,-0.002,0.003,0.000,0.000,
0.890,0.060,-0.023,0.004,0.003,-0.002,-0.001,-0.000,0.003,-0.000,0.000,
0.892,0.078,-0.012,0.005,0.003,-0.002,-0.001,-0.000,0.003,-0.001,0.000,
0.894,0.094,0.001,0.003,0.004,-0.002,-0.001,-0.002,0.003,-0.001,0.000,
0.896,0.103,0.012,0.000,0.004,-0.002,-0.001,-0.004,0.002,-0.002,0.000,
0.898,0.100,0.020,-0.002,0.004,-0.002,-0.001,-0.006,0.002,-0.003,0.000,
0.900,0.086,0.023,-0.004,0.004,-0.002,-0.001,-0.007,0.002,-0.004,0.000,
0.902,0.066,0.021,-0.003,0.004,-0.002,-0.001,-0.007,0.003,-0.006,0.000,
0.904,0.043,0.015,0.001,0.004,-0.002,-0.001,-0.006,0.005,-0.007,0.000,
0.908,0.018,0.006,0.007,0.005,-0.002,-0.001,-0.004,0.007,-0.008,0.000,
0.910,-0.013,-0.006,0.014,0.005,-0.002,-0.001,-0.002,0.009,-0.010,0.000,
0.912,-0.039,-0.017,0.018,0.005,-0.002,-0.001,0.001,0.008,-0.011,0.000,
0.914,-0.052,-0.022,0.017,0.004,-0.002,-0.001,0.003,0.006,-0.012,0.000,
0.916,-0.049,-0.021,0.010,0.004,-0.002,-0.001,0.004,0.004,-0.012,0.000,
0.918,-0.037,-0.015,-0.001,0.004,-0.002,-0.001,0.005,0.002,-0.012,0.000,
0.920,-0.022,-0.006,-0.012,0.004,-0.002,-0.001,0.005,0.001,-0.010,0.000,
0.922,-0.008,0.004,-0.020,0.004,-0.002,-0.001,0.006,0.001,-0.007,0.000,
0.924,0.003,0.013,-0.026,0.004,-0.002,-0.001,0.006,0.001,-0.004,0.000,
0.926,0.010,0.018,-0.030,0.004,-0.002,-0.001,0.008,0.001,-0.001,0.000,
0.928,0.015,0.020,-0.034,0.004,-0.002,-0.001,0.010,0.001,0.001,0.000,
0.933,0.018,0.022,-0.036,0.004,-0.002,-0.001,0.012,0.000,0.004,0.000,
0.935,0.018,0.022,-0.035,0.004,-0.002,-0.001,0.014,0.001,0.006,0.000,
0.937,0.016,0.022,-0.033,0.004,-0.002,-0.001,0.015,0.003,0.008,0.000,
0.939,0.013,0.023,-0.030,0.004,-0.002,-0.001,0.015,0.005,0.007,0.000,
0.941,0.009,0.023,-0.028,0.004,-0.002,-0.001,0.015,0.007,0.006,0.000,
0.943,0.008,0.025,-0.027,0.004,-0.002,-0.001,0.015,0.008,0.005,0.000,
0.945,0.009,0.026,-0.028,0.004,-0.002,-0.002,0.014,0.009,0.004,0.000,
0.947,0.012,0.026,-0.032,0.004,-0.002,-0.002,0.012,0.008,0.003,0.000,
0.949,0.014,0.027,-0.039,0.004,-0.002,-0.002,0.009,0.007,0.002,0.000,
0.951,0.014,0.027,-0.046,0.004,-0.002,-0.002,0.007,0.004,0.001,0.000,
0.953,0.011,0.028,-0.050,0.004,-0.002,-0.002,0.005,0.002,-0.000,0.000,
0.955,0.007,0.030,-0.049,0.004,-0.002,-0.002,0.005,0.001,-0.000,0.000,
0.959,0.004,0.032,-0.044,0.004,-0.002,-0.002,0.004,0.001,0.000,0.000,
0.961,0.002,0.026,-0.029,0.004,-0.002,-0.002,0.003,0.002,0.003,0.000,
0.963,-0.004,0.015,-0.010,0.004,-0.002,-0.002,0.001,0.004,0.005,0.000,
0.965,-0.014,0.002,0.008,0.004,-0.002,-0.002,0.001,0.005,0.007,0.000,
0.967,-0.027,-0.011,0.024,0.004,-0.002,-0.002,0.004,0.005,0.009,0.000,
0.969,-0.038,-0.017,0.035,0.004,-0.002,-0.002,0.007,0.005,0.010,0.000,
0.971,-0.045,-0.016,0.038,0.004,-0.002,-0.002,0.011,0.005,0.011,0.000,
0.973,-0.046,-0.009,0.031,0.004,-0.002,-0.002,0.014,0.005,0.010,0.000,
0.975,-0.041,0.002,0.017,0.004,-0.002,-0.002,0.016,0.005,0.010,0.000,
0.977,-0.033,0.013,0.002,0.004,-0.002,-0.002,0.016,0.005,0.010,0.000,
0.979,-0.023,0.024,-0.012,0.004,-0.002,-0.002,0.015,0.003,0.009,0.000,
0.981,-0.013,0.033,-0.020,0.004,-0.002,-0.002,0.013,0.001,0.006,0.000,
0.986,-0.001,0.041,-0.024,0.004,-0.002,-0.002,0.010,-0.000,0.004,0.000,
0.988,0.016,0.047,-0.024,0.004,-0.001,-0.002,0.004,-0.000,0.002,0.000,
0.990,0.030,0.047,-0.023,0.004,-0.001,-0.002,-0.003,0.001,0.002,0.000,
0.992,0.037,0.041,-0.021,0.004,-0.001,-0.002,-0.007,0.002,0.002,0.000,
0.994,0.037,0.030,-0.015,0.004,-0.001,-0.002,-0.009,0.003,0.003,0.000,
0.996,0.033,0.017,-0.008,0.004,-0.001,-0.002,-0.009,0.003,0.004,0.000,
0.998,0.029,0.005,-0.000,0.004,-0.001,-0.002,-0.008,0.002,0.005,0.000,
1.000,0.026,-0.007,0.008,0.004,-0.001,-0.002,-0.005,0.000,0.005,0.000,
1.002,0.022,-0.017,0.017,0.004,-0.001,-0.002,-0.003,-0.002,0.004,0.000,
1.004,0.017,-0.026,0.026,0.004,-0.001,-0.002,0.000,-0.005,0.002,0.000,
1.006,0.014,-0.032,0.032,0.004,-0.001,-0.002,0.003,-0.007,-0.000,0.000,
1.010,0.014,-0.035,0.035,0.004,-0.001,-0.002,0.004,-0.008,-0.004,0.000,
1.012,0.023,-0.030,0.034,0.004,-0.001,-0.002,0.003,-0.007,-0.009,0.000,
1.014,0.037,-0.020,0.031,0.005,-0.001,-0.002,0.001,-0.003,-0.014,0.000,
1.016,0.052,-0.012,0.028,0.005,-0.001,-0.002,-0.002,0.000,-0.015,0.000,
1.018,0.061,-0.009,0.025,0.005,-0.001,-0.002,-0.005,0.004,-0.014,0.000,
1.020,0.060,-0.013,0.022,0.005,-0.001,-0.002,-0.007,0.007,-0.011,0.000,
1.022,0.049,-0.019,0.020,0.005,-0.001,-0.002,-0.007,0.009,-0.006,0.000,
1.024,0.032,-0.026,0.019,0.005,-0.002,-0.002,-0.005,0.010,-0.002,0.000,
1.026,0.012,-0.032,0.020,0.005,-0.002,-0.002,-0.002,0.010,0.002,0.000,
1.028,-0.008,-0.037,0.022,0.005,-0.002,-0.002,0.002,0.009,0.004,0.000,
1.030,-0.027,-0.039,0.025,0.005,-0.002,-0.001,0.005,0.008,0.006,0.000,
1.032,-0.045,-0.038,0.025,0.005,-0.002,-0.001,0.007,0.006,0.007,0.000,
1.037,-0.062,-0.032,0.021,0.005,-0.002,-0.001,0.008,0.004,0.008,0.000,
1.039,-0.072,-0.018,0.015,0.005,-0.002,-0.001,0.008,0.002,0.008,0.000,
1.041,-0.071,-0.001,0.010,0.005,-0.002,-0.001,0.007,-0.001,0.007,0.000,
1.043,-0.056,0.015,0.007,0.005,-0.002,-0.001,0.006,-0.003,0.006,0.000,
1.045,-0.030,0.028,0.005,0.004,-0.002,-0.001,0.005,-0.003,0.005,0.000,
1.047,-0.003,0.036,0.005,0.004,-0.002,-0.001,0.004,-0.001,0.004,0.000,
1.049,0.017,0.038,0.006,0.004,-0.002,-0.001,0.004,0.001,0.004,0.000,
1.051,0.026,0.035,0.004,0.004,-0.002,-0.001,0.005,0.003,0.003,0.000,
1.053,0.025,0.028,-0.000,0.004,-0.002,-0.001,0.005,0.005,0.003,0.000,
1.055,0.018,0.016,-0.006,0.004,-0.002,-0.001,0.003,0.004,0.003,0.000,
1.057,0.008,0.001,-0.009,0.005,-0.002,-0.001,0.002,0.003,0.003,0.000,
1.059,-0.002,-0.015,-0.006,0.005,-0.002,-0.001,-0.000,0.001,0.002,0.000,
1.064,-0.012,-0.027,0.004,0.005,-0.002,-0.001,-0.002,-0.002,-0.001,0.000,
1.066,-0.024,-0.040,0.022,0.005,-0.002,-0.001,-0.002,-0.008,-0.003,0.000,
1.068,-0.034,-0.047,0.041,0.004,-0.002,-0.001,-0.001,-0.014,-0.005,0.000,
1.070,-0.038,-0.044,0.055,0.004,-0.002,-0.001,-0.001,-0.018,-0.005,0.000,
1.072,-0.037,-0.034,0.061,0.004,-0.002,-0.001,-0.003,-0.019,-0.004,0.000,
1.074,-0.031,-0.020,0.058,0.004,-0.002,-0.001,-0.004,-0.017,-0.002,0.000,
1.076,-0.024,-0.008,0.050,0.004,-0.002,-0.001,-0.007,-0.014,-0.002,0.000,
1.078,-0.019,-0.002,0.042,0.004,-0.002,-0.001,-0.008,-0.011,-0.002,0.000,
1.080,-0.015,-0.001,0.035,0.004,-0.002,-0.001,-0.009,-0.008,-0.002,0.000,
1.082,-0.010,-0.001,0.031,0.004,-0.002,-0.001,-0.009,-0.007,-0.002,0.000,
1.084,-0.007,-0.001,0.027,0.004,-0.002,-0.000,-0.009,-0.006,-0.003,0.000,
1.088,-0.005,-0.000,0.023,0.004,-0.002,-0.000,-0.009,-0.008,-0.003,0.000,
1.090,-0.003,0.003,0.017,0.004,-0.002,-0.000,-0.009,-0.010,-0.005,0.000,
1.092,-0.004,0.009,0.011,0.004,-0.002,-0.000,-0.008,-0.011,-0.008,0.000,
1.094,-0.006,0.016,0.006,0.004,-0.002,-0.000,-0.006,-0.011,-0.009,0.000,
1.096,-0.007,0.023,0.002,0.004,-0.002,-0.000,-0.003,-0.010,-0.010,0.000,
1.098,-0.003,0.031,-0.002,0.004,-0.002,-0.000,0.000,-0.008,-0.011,0.000,
1.100,0.003,0.040,-0.007,0.004,-0.002,-0.000,0.003,-0.004,-0.012,0.000,
1.102,0.011,0.050,-0.012,0.004,-0.002,-0.000,0.005,-0.001,-0.013,0.000,
1.104,0.021,0.058,-0.015,0.004,-0.002,-0.000,0.007,0.003,-0.014,0.000,
1.106,0.029,0.061,-0.015,0.004,-0.002,-0.000,0.007,0.007,-0.015,0.000,
1.108,0.032,0.058,-0.012,0.004,-0.001,-0.000,0.007,0.009,-0.015,0.000,
1.110,0.030,0.046,-0.006,0.004,-0.001,-0.000,0.006,0.011,-0.014,0.000,
1.115,0.024,0.030,0.004,0.004,-0.001,-0.000,0.005,0.013,-0.013,0.000,
1.117,0.015,0.014,0.013,0.004,-0.001,-0.000,0.006,0.014,-0.008,0.000,
1.119,0.007,0.004,0.016,0.004,-0.001,-0.000,0.006,0.013,-0.003,0.000,
1.121,0.001,0.002,0.011,0.004,-0.001,-0.000,0.004,0.011,0.001,0.000,
1.123,-0.001,0.008,0.002,0.004,-0.001,-0.000,0.002,0.009,0.003,0.000,
1.125,-0.003,0.019,-0.006,0.004,-0.001,-0.000,-0.000,0.007,0.004,0.000,
1.127,-0.002,0.031,-0.009,0.004,-0.001,-0.000,-0.002,0.005,0.004,0.000,
1.129,0.002,0.042,-0.009,0.004,-0.001,-0.000,-0.002,0.004,0.004,0.000,
1.131,0.009,0.050,-0.006,0.004,-0.001,-0.000,-0.002,0.003,0.005,0.000,
1.133,0.019,0.057,-0.005,0.004,-0.001,-0.000,-0.002,0.001,0.005,0.000,
1.135,0.031,0.063,-0.004,0.004,-0.001,-0.000,-0.002,-0.001,0.004,0.000,
1.137,0.039,0.066,-0.003,0.004,-0.001,-0.000,-0.002,-0.002,0.002,0.000,
1.142,0.043,0.066,-0.000,0.005,-0.001,-0.000,-0.003,-0.002,-0.001,0.000,
1.144,0.038,0.060,0.000,0.005,-0.000,-0.000,-0.003,-0.002,-0.004,0.000,
1.146,0.027,0.047,-0.002,0.005,-0.000,-0.000,-0.003,-0.001,-0.006,0.000,
1.148,0.015,0.030,-0.006,0.005,-0.000,-0.000,-0.003,-0.002,-0.006,0.000,
1.150,0.004,0.014,-0.013,0.005,-0.000,-0.000,-0.002,-0.003,-0.004,0.000,
1.152,-0.002,0.000,-0.022,0.005,-0.000,-0.000,-0.001,-0.005,-0.002,0.000,
1.154,-0.002,-0.008,-0.034,0.005,-0.000,-0.001,-0.001,-0.007,-0.000,0.000,
1.156,0.005,-0.010,-0.048,0.005,-0.000,-0.001,-0.000,-0.007,0.000,0.000,
1.158,0.015,-0.004,-0.061,0.005,-0.000,-0.001,0.001,-0.007,-0.000,0.000,
1.160,0.024,0.010,-0.072,0.005,-0.000,-0.001,0.002,-0.006,-0.001,0.000,
1.162,0.027,0.025,-0.080,0.005,-0.000,-0.001,0.002,-0.005,-0.001,0.000,
1.166,0.027,0.038,-0.086,0.005,-0.000,-0.001,0.001,-0.003,0.001,0.000,
1.168,0.022,0.045,-0.083,0.005,0.000,-0.001,-0.002,-0.001,0.002,0.000,
1.170,0.015,0.045,-0.073,0.005,0.000,-0.001,-0.007,0.002,0.001,0.000,
1.172,0.009,0.038,-0.060,0.005,0.000,-0.002,-0.011,0.003,0.000,0.000,
1.174,0.002,0.029,-0.047,0.005,0.000,-0.002,-0.013,0.003,-0.001,0.000,
1.176,-0.003,0.019,-0.035,0.005,0.000,-0.002,-0.014,0.001,-0.001,0.000,
1.178,-0.006,0.006,-0.023,0.005,0.000,-0.002,-0.012,-0.001,-0.001,0.000,
1.180,-0.006,-0.007,-0.009,0.005,0.000,-0.002,-0.008,-0.004,0.000,0.000,
1.182,0.000,-0.016,0.005,0.005,0.000,-0.002,-0.004,-0.005,0.002,0.000,
1.184,0.013,-0.019,0.016,0.005,0.000,-0.002,0.002,-0.006,0.004,0.000,
1.186,0.028,-0.017,0.023,0.005,0.000,-0.002,0.006,-0.007,0.006,0.000,
1.188,0.043,-0.009,0.026,0.005,0.000,-0.002,0.008,-0.007,0.007,0.000,
1.193,0.055,0.005,0.027,0.005,0.000,-0.002,0.009,-0.007,0.007,0.000,
1.195,0.063,0.025,0.022,0.005,0.000,-0.002,0.009,-0.006,0.005,0.000,
1.197,0.063,0.043,0.015,0.005,0.000,-0.002,0.009,-0.005,0.002,0.000,
1.199,0.053,0.053,0.010,0.006,0.000,-0.002,0.008,-0.003,0.000,0.000,
1.201,0.036,0.050,0.008,0.006,0.001,-0.002,0.007,-0.002,-0.002,0.000,
1.203,0.017,0.039,0.007,0.006,0.001,-0.002,0.006,-0.001,-0.003,0.000,
1.205,0.002,0.022,0.008,0.006,0.001,-0.002,0.005,-0.001,-0.004,0.000,
1.207,-0.007,0.004,0.010,0.006,0.001,-0.002,0.004,-0.001,-0.005,0.000,
1.209,-0.011,-0.012,0.013,0.006,0.001,-0.002,0.002,-0.001,-0.004,0.000,
1.211,-0.013,-0.027,0.016,0.006,0.001,-0.002,-0.000,-0.002,-0.001,0.000,
1.213,-0.012,-0.036,0.015,0.006,0.001,-0.002,-0.002,-0.003,0.002,0.000,
1.217,-0.008,-0.039,0.012,0.006,0.001,-0.002,-0.003,-0.004,0.004,0.000,
1.219,0.000,-0.031,0.005,0.006,0.001,-0.001,-0.003,-0.005,0.005,0.000,
1.221,0.011,-0.014,0.001,0.006,0.000,-0.001,-0.004,-0.006,0.004,0.000,
1.223,0.021,0.004,0.001,0.006,0.000,-0.001,-0.006,-0.006,0.004,0.000,
1.225,0.028,0.019,0.004,0.006,0.000,-0.001,-0.006,-0.006,0.003,0.000,
1.227,0.033,0.027,0.005,0.006,0.000,-0.001,-0.006,-0.007,0.002,0.000,
1.229,0.036,0.029,0.003,0.006,0.001,-0.001,-0.003,-0.008,0.001,0.000,
1.231,0.038,0.027,-0.001,0.006,0.001,-0.001,0.001,-0.009,0.001,0.000,
1.233,0.037,0.023,-0.007,0.006,0.001,-0.001,0.006,-0.009,-0.000,0.000,
1.235,0.034,0.019,-0.013,0.006,0.001,-0.001,0.010,-0.007,-0.002,0.000,
1.237,0.028,0.015,-0.018,0.006,0.001,-0.001,0.014,-0.004,-0.004,0.000,
1.239,0.022,0.012,-0.023,0.006,0.001,-0.002,0.016,-0.002,-0.006,0.000,
1.244,0.018,0.008,-0.023,0.006,0.001,-0.002,0.016,0.000,-0.006,0.000,
1.246,0.019,0.001,-0.017,0.006,0.001,-0.002,0.015,0.002,-0.005,0.000,
1.248,0.022,-0.001,-0.012,0.006,0.001,-0.002,0.014,0.002,-0.003,0.000,
1.250,0.025,0.001,-0.010,0.006,0.001,-0.002,0.012,0.001,-0.003,0.000,
1.252,0.026,0.002,-0.010,0.006,0.001,-0.002,0.010,0.000,-0.004,0.000,
1.254,0.024,-0.000,-0.009,0.006,0.001,-0.002,0.009,-0.001,-0.007,0.000,
1.256,0.017,-0.005,-0.006,0.007,0.001,-0.002,0.007,-0.002,-0.009,0.000,
1.258,0.008,-0.009,0.001,0.007,0.001,-0.002,0.007,-0.002,-0.010,0.000,
1.260,0.001,-0.010,0.008,0.007,0.001,-0.002,0.008,-0.002,-0.011,0.000,
1.262,-0.004,-0.012,0.014,0.007,0.001,-0.002,0.009,-0.001,-0.011,0.000,
1.264,-0.009,-0.016,0.018,0.007,0.001,-0.002,0.010,-0.001,-0.010,0.000,
1.266,-0.013,-0.019,0.020,0.007,0.001,-0.002,0.012,-0.002,-0.008,0.000,
1.270,-0.015,-0.019,0.023,0.007,0.001,-0.002,0.012,-0.003,-0.006,0.000,
1.272,-0.007,-0.010,0.028,0.006,0.001,-0.002,0.012,-0.004,-0.003,0.000,
1.274,0.006,0.006,0.032,0.006,0.001,-0.002,0.011,-0.005,-0.002,0.000,
1.276,0.019,0.024,0.033,0.006,0.001,-0.001,0.008,-0.007,-0.002,0.000,
1.278,0.026,0.038,0.033,0.007,0.001,-0.001,0.004,-0.008,-0.003,0.000,
1.280,0.031,0.045,0.032,0.007,0.001,-0.001,0.000,-0.008,-0.004,0.000,
1.282,0.033,0.044,0.030,0.007,0.001,-0.001,-0.003,-0.009,-0.005,0.000,
1.284,0.034,0.036,0.026,0.007,0.001,-0.001,-0.005,-0.010,-0.005,0.000,
1.286,0.034,0.023,0.022,0.007,0.001,-0.001,-0.007,-0.011,-0.004,0.000,
1.288,0.032,0.011,0.016,0.007,0.001,-0.001,-0.009,-0.012,-0.004,0.000,
1.290,0.030,0.000,0.009,0.007,0.001,-0.001,-0.011,-0.014,-0.003,0.000,
1.295,0.027,-0.005,-0.002,0.007,0.001,-0.001,-0.013,-0.014,-0.003,0.000,
1.297,0.019,-0.005,-0.019,0.007,0.001,-0.001,-0.013,-0.015,-0.001,0.000,
1.299,0.009,0.000,-0.038,0.007,0.001,-0.001,-0.011,-0.016,0.001,0.000,
1.301,0.001,0.007,-0.055,0.007,0.001,-0.001,-0.008,-0.016,0.003,0.000,
1.303,-0.001,0.014,-0.067,0.007,0.001,-0.001,-0.005,-0.017,0.005,0.000,
1.305,0.007,0.019,-0.074,0.007,0.001,-0.001,-0.003,-0.016,0.007,0.000,
1.307,0.020,0.024,-0.077,0.007,0.001,-0.002,-0.003,-0.013,0.008,0.000,
1.309,0.033,0.028,-0.077,0.007,0.001,-0.002,-0.004,-0.009,0.009,0.000,
1.311,0.044,0.034,-0.075,0.007,0.001,-0.002,-0.005,-0.005,0.008,0.000,
1.313,0.049,0.040,-0.074,0.007,0.001,-0.002,-0.007,-0.002,0.007,0.000,
1.315,0.046,0.046,-0.071,0.007,0.001,-0.002,-0.008,0.000,0.005,0.000,
1.317,0.032,0.049,-0.068,0.007,0.001,-0.002,-0.010,0.000,0.002,0.000,
1.321,0.010,0.046,-0.062,0.008,0.002,-0.002,-0.011,-0.001,-0.001,0.000,
1.323,-0.020,0.037,-0.048,0.008,0.002,-0.003,-0.011,-0.003,-0.005,0.000,
1.325,-0.048,0.026,-0.030,0.008,0.002,-0.003,-0.011,-0.007,-0.009,0.000,
1.327,-0.064,0.017,-0.015,0.007,0.002,-0.003,-0.010,-0.009,-0.012,0.000,
1.329,-0.064,0.013,-0.004,0.007,0.002,-0.003,-0.008,-0.012,-0.014,0.000,
1.331,-0.051,0.015,0.003,0.007,0.002,-0.003,-0.006,-0.014,-0.015,0.000,
1.333,-0.032,0.023,0.004,0.007,0.002,-0.003,-0.004,-0.015,-0.015,0.000,
1.335,-0.015,0.032,0.000,0.007,0.002,-0.003,-0.001,-0.016,-0.014,0.000,
1.337,-0.005,0.040,-0.007,0.007,0.002,-0.003,0.001,-0.017,-0.013,0.000,
1.339,-0.003,0.044,-0.015,0.007,0.002,-0.003,0.003,-0.017,-0.012,0.000,
1.341,-0.006,0.043,-0.024,0.007,0.002,-0.003,0.006,-0.015,-0.011,0.000,
1.343,-0.010,0.037,-0.028,0.007,0.002,-0.003,0.007,-0.013,-0.009,0.000,
1.348,-0.009,0.027,-0.026,0.007,0.002,-0.003,0.008,-0.010,-0.007,0.000,
1.350,-0.001,0.011,-0.017,0.007,0.002,-0.003,0.006,-0.006,-0.004,0.000,
1.352,0.010,-0.003,-0.005,0.007,0.002,-0.003,0.002,-0.002,0.000,0.000,
1.354,0.016,-0.014,0.006,0.007,0.002,-0.003,-0.003,0.002,0.004,0.000,
1.356,0.014,-0.020,0.011,0.007,0.002,-0.003,-0.006,0.005,0.007,0.000,
1.358,0.003,-0.018,0.013,0.007,0.002,-0.003,-0.007,0.006,0.009,0.000,
1.360,-0.012,-0.009,0.010,0.007,0.002,-0.003,-0.007,0.005,0.010,0.000,
1.362,-0.025,0.002,0.005,0.007,0.002,-0.003,-0.007,0.003,0.010,0.000,
1.364,-0.034,0.015,0.001,0.007,0.002,-0.003,-0.007,0.002,0.011,0.000,
1.366,-0.036,0.025,-0.003,0.007,0.002,-0.003,-0.008,0.001,0.011,0.000,
1.368,-0.035,0.031,-0.007,0.007,0.002,-0.003,-0.010,0.001,0.011,0.000,
1.373,-0.034,0.031,-0.009,0.007,0.002,-0.003,-0.012,0.001,0.012,0.000,
1.375,-0.042,0.021,-0.003,0.007,0.002,-0.003,-0.014,0.002,0.011,0.000,
1.377,-0.055,0.008,0.008,0.007,0.002,-0.003,-0.016,0.003,0.009,0.000,
1.379,-0.067,-0.003,0.020,0.006,0.003,-0.003,-0.015,0.004,0.007,0.000,
1.381,-0.076,-0.011,0.030,0.006,0.003,-0.003,-0.014,0.003,0.004,0.000,
1.383,-0.082,-0.017,0.036,0.006,0.002,-0.003,-0.011,0.003,0.000,0.000,
1.385,-0.087,-0.021,0.037,0.006,0.002,-0.003,-0.009,0.001,-0.003,0.000,
1.387,-0.089,-0.024,0.034,0.006,0.002,-0.003,-0.006,-0.002,-0.005,0.000,
1.389,-0.087,-0.025,0.027,0.006,0.002,-0.003,-0.004,-0.005,-0.007,0.000,
1.391,-0.079,-0.024,0.019,0.005,0.002,-0.003,-0.002,-0.008,-0.007,0.000,
1.393,-0.069,-0.021,0.009,0.005,0.002,-0.003,0.001,-0.008,-0.006,0.000,
1.395,-0.058,-0.018,0.001,0.005,0.002,-0.003,0.003,-0.006,-0.006,0.000,
1.400,-0.046,-0.014,-0.004,0.005,0.002,-0.003,0.006,-0.004,-0.007,0.000,
1.402,-0.028,-0.010,-0.004,0.005,0.002,-0.003,0.008,-0.002,-0.007,0.000,
1.404,-0.011,-0.008,0.001,0.005,0.002,-0.003,0.008,0.000,-0.007,0.000,
1.406,-0.000,-0.010,0.007,0.005,0.002,-0.003,0.008,0.000,-0.008,0.000,
1.408,0.004,-0.012,0.012,0.005,0.002,-0.003,0.007,-0.001,-0.009,0.000,
1.410,0.003,-0.014,0.019,0.005,0.002,-0.002,0.006,-0.002,-0.010,0.000,
1.412,-0.000,-0.016,0.028,0.005,0.002,-0.002,0.005,-0.004,-0.010,0.000,
1.414,-0.006,-0.020,0.039,0.005,0.002,-0.002,0.005,-0.005,-0.009,0.000,
1.416,-0.014,-0.026,0.051,0.005,0.002,-0.002,0.005,-0.006,-0.009,0.000,
1.418,-0.022,-0.030,0.064,0.005,0.002,-0.002,0.007,-0.007,-0.009,0.000,
1.420,-0.030,-0.029,0.076,0.005,0.002,-0.002,0.010,-0.009,-0.010,0.000,
1.422,-0.036,-0.020,0.086,0.005,0.002,-0.002,0.013,-0.010,-0.009,0.000,
1.427,-0.037,-0.007,0.092,0.005,0.002,-0.002,0.015,-0.011,-0.008,0.000,
1.429,-0.032,0.011,0.090,0.005,0.002,-0.002,0.014,-0.011,-0.007,0.000,
1.431,-0.025,0.025,0.082,0.005,0.002,-0.001,0.011,-0.011,-0.006,0.000,
1.433,-0.019,0.031,0.070,0.004,0.002,-0.001,0.008,-0.010,-0.007,0.000,
1.435,-0.015,0.028,0.056,0.004,0.002,-0.001,0.004,-0.009,-0.008,0.000,
1.437,-0.014,0.020,0.042,0.004,0.002,-0.001,0.001,-0.008,-0.008,0.000,
1.439,-0.016,0.007,0.029,0.004,0.002,-0.001,-0.002,-0.007,-0.009,0.000,
1.441,-0.019,-0.007,0.018,0.004,0.002,-0.001,-0.004,-0.006,-0.009,0.000,
1.443,-0.022,-0.021,0.012,0.004,0.002,-0.001,-0.006,-0.005,-0.008,0.000,
1.445,-0.021,-0.031,0.012,0.004,0.002,-0.001,-0.006,-0.005,-0.007,0.000,
1.447,-0.014,-0.035,0.017,0.004,0.002,-0.001,-0.006,-0.005,-0.007,0.000,
1.451,-0.003,-0.033,0.022,0.004,0.002,-0.001,-0.004,-0.006,-0.008,0.000,
1.453,0.014,-0.020,0.023,0.004,0.002,-0.001,-0.001,-0.009,-0.010,0.000,
1.455,0.029,0.000,0.021,0.004,0.002,-0.001,0.003,-0.012,-0.012,0.000,
1.457,0.038,0.022,0.020,0.004,0.002,-0.001,0.004,-0.014,-0.012,0.000,
1.459,0.042,0.040,0.019,0.004,0.002,-0.001,0.003,-0.015,-0.013,0.000,
1.461,0.041,0.053,0.019,0.004,0.002,-0.001,0.000,-0.014,-0.013,0.000,
1.463,0.039,0.060,0.019,0.005,0.002,-0.000,-0.004,-0.013,-0.014,0.000,
1.465,0.036,0.062,0.018,0.005,0.002,-0.000,-0.007,-0.010,-0.013,0.000,
1.467,0.031,0.056,0.015,0.005,0.002,-0.000,-0.009,-0.009,-0.012,0.000,
1.469,0.023,0.043,0.013,0.005,0.002,-0.000,-0.010,-0.008,-0.010,0.000,
1.471,0.012,0.023,0.013,0.005,0.002,-0.000,-0.010,-0.007,-0.008,0.000,
1.473,-0.002,0.002,0.014,0.005,0.002,-0.000,-0.009,-0.008,-0.007,0.000,
1.478,-0.014,-0.015,0.014,0.005,0.002,-0.000,-0.007,-0.010,-0.006,0.000,
1.480,-0.018,-0.023,0.006,0.005,0.002,-0.000,-0.005,-0.012,-0.002,0.000,
1.482,-0.013,-0.019,-0.007,0.005,0.002,-0.000,-0.003,-0.013,0.002,0.000,
1.484,-0.001,-0.007,-0.018,0.005,0.002,-0.000,-0.001,-0.013,0.005,0.000,
1.486,0.013,0.008,-0.025,0.005,0.002,-0.000,-0.000,-0.013,0.007,0.000,
1.488,0.025,0.020,-0.028,0.005,0.002,-0.000,-0.000,-0.011,0.006,0.000,
1.490,0.034,0.025,-0.029,0.005,0.002,-0.000,-0.001,-0.009,0.005,0.000,
1.492,0.040,0.020,-0.030,0.005,0.002,-0.000,-0.002,-0.007,0.003,0.000,
1.494,0.042,0.007,-0.030,0.005,0.002,-0.001,-0.001,-0.006,0.001,0.000,
1.496,0.040,-0.008,-0.027,0.005,0.002,-0.001,-0.001,-0.005,-0.001,0.000,
1.498,0.033,-0.021,-0.020,0.005,0.002,-0.001,0.000,-0.003,-0.004,0.000,
1.502,0.027,-0.027,-0.013,0.005,0.002,-0.001,0.001,-0.002,-0.007,0.000,
1.504,0.023,-0.031,-0.007,0.005,0.002,-0.001,0.003,-0.003,-0.010,0.000,
1.506,0.022,-0.031,-0.002,0.005,0.002,-0.001,0.005,-0.005,-0.011,0.000,
1.508,0.022,-0.028,0.001,0.005,0.002,-0.001,0.006,-0.006,-0.012,0.000,
1.510,0.023,-0.023,0.002,0.005,0.002,-0.001,0.006,-0.006,-0.012,0.000,
1.512,0.025,-0.017,0.001,0.005,0.002,-0.001,0.005,-0.007,-0.011,0.000,
1.514,0.028,-0.009,-0.002,0.005,0.002,-0.001,0.003,-0.007,-0.009,0.000,
1.516,0.032,0.001,-0.004,0.006,0.002,-0.001,0.001,-0.008,-0.006,0.000,
1.518,0.039,0.012,-0.006,0.006,0.002,-0.001,-0.002,-0.009,-0.004,0.000,
1.520,0.048,0.022,-0.008,0.006,0.002,-0.001,-0.004,-0.010,-0.004,0.000,
1.522,0.052,0.031,-0.007,0.006,0.002,-0.001,-0.005,-0.011,-0.006,0.000,
1.524,0.051,0.035,-0.005,0.006,0.002,-0.001,-0.007,-0.010,-0.009,0.000,
1.529,0.045,0.035,0.000,0.006,0.002,-0.001,-0.009,-0.008,-0.011,0.000,
1.531,0.034,0.023,0.011,0.006,0.002,-0.001,-0.010,-0.002,-0.011,0.000,
1.533,0.024,0.006,0.021,0.006,0.002,-0.001,-0.009,0.004,-0.009,0.000,
1.535,0.022,-0.008,0.025,0.006,0.002,-0.001,-0.005,0.007,-0.005,0.000,
1.537,0.027,-0.016,0.020,0.006,0.002,-0.001,-0.000,0.008,-0.001,0.000,
1.539,0.035,-0.018,0.011,0.006,0.002,-0.001,0.005,0.007,0.002,0.000,
1.541,0.044,-0.014,0.001,0.006,0.002,-0.001,0.010,0.005,0.003,0.000,
1.543,0.051,-0.008,-0.008,0.006,0.002,-0.001,0.013,0.003,0.004,0.000,
1.545,0.059,-0.001,-0.013,0.007,0.002,-0.001,0.014,0.001,0.004,0.000,
1.547,0.069,0.007,-0.014,0.007,0.002,-0.001,0.013,-0.000,0.004,0.000,
1.549,0.081,0.015,-0.013,0.007,0.002,-0.001,0.010,-0.001,0.005,0.000,
1.551,0.092,0.019,-0.010,0.007,0.002,-0.001,0.006,-0.002,0.005,0.000,
1.555,0.096,0.019,-0.007,0.007,0.002,-0.001,0.004,-0.003,0.006,0.000,
1.557,0.087,0.014,0.000,0.007,0.002,-0.001,0.002,-0.004,0.006,0.000,
1.559,0.065,0.007,0.007,0.007,0.002,-0.001,0.001,-0.006,0.005,0.000,
1.561,0.039,0.003,0.010,0.008,0.002,-0.001,-0.000,-0.008,0.003,0.000,
1.563,0.016,0.004,0.009,0.008,0.002,-0.001,-0.000,-0.009,0.001,0.000,
1.565,-0.003,0.007,0.006,0.008,0.002,-0.001,0.001,-0.009,0.001,0.000,
1.567,-0.017,0.010,0.001,0.008,0.002,-0.001,0.002,-0.011,0.002,0.000,
1.569,-0.027,0.013,-0.004,0.008,0.002,-0.001,0.003,-0.013,0.002,0.000,
1.571,-0.032,0.017,-0.007,0.008,0.002,-0.001,0.003,-0.015,0.003,0.000,
1.573,-0.027,0.023,-0.009,0.008,0.003,-0.001,0.004,-0.017,0.002,0.000,
1.575,-0.013,0.031,-0.010,0.008,0.003,-0.001,0.004,-0.018,0.001,0.000,
1.580,0.009,0.038,-0.011,0.007,0.003,-0.001,0.003,-0.018,-0.001,0.000,
1.582,0.039,0.038,-0.010,0.008,0.003,-0.001,0.004,-0.015,-0.003,0.000,
1.584,0.068,0.032,-0.008,0.008,0.003,-0.001,0.006,-0.011,-0.005,0.000,
1.586,0.089,0.022,-0.004,0.008,0.003,-0.001,0.008,-0.008,-0.005,0.000,
1.588,0.099,0.009,0.000,0.008,0.003,-0.001,0.010,-0.007,-0.005,0.000,
1.590,0.098,-0.003,0.003,0.008,0.003,-0.001,0.011,-0.007,-0.005,0.000,
1.592,0.089,-0.011,0.005,0.008,0.003,-0.001,0.012,-0.008,-0.005,0.000,
1.594,0.079,-0.014,0.007,0.008,0.003,-0.001,0.013,-0.009,-0.005,0.000,
1.596,0.070,-0.013,0.011,0.009,0.003,-0.001,0.015,-0.010,-0.005,0.000,
1.598,0.060,-0.008,0.014,0.009,0.003,-0.001,0.017,-0.010,-0.004,0.000,
1.600,0.049,0.003,0.015,0.009,0.003,-0.001,0.019,-0.011,-0.003,0.000,
1.602,0.039,0.018,0.012,0.009,0.003,-0.001,0.019,-0.012,-0.002,0.000,
1.606,0.034,0.033,0.005,0.009,0.003,-0.001,0.018,-0.012,0.000,0.000,
1.608,0.037,0.043,-0.005,0.009,0.003,-0.001,0.013,-0.012,0.003,0.000,
1.610,0.044,0.043,-0.018,0.009,0.003,-0.001,0.007,-0.010,0.006,0.000,
1.612,0.051,0.035,-0.027,0.009,0.003,-0.001,0.002,-0.008,0.006,0.000,
1.614,0.053,0.020,-0.029,0.009,0.003,-0.001,0.000,-0.005,0.005,0.000,
1.616,0.050,0.001,-0.024,0.010,0.003,-0.001,0.001,-0.002,0.004,0.000,
1.618,0.042,-0.017,-0.015,0.010,0.003,-0.001,0.003,0.001,0.003,0.000,
1.620,0.034,-0.033,-0.007,0.010,0.003,-0.001,0.006,0.001,0.001,0.000,
1.622,0.028,-0.042,-0.001,0.010,0.003,-0.001,0.010,0.001,-0.001,0.000,
1.624,0.026,-0.043,0.002,0.010,0.003,-0.001,0.015,-0.001,-0.004,0.000,
1.626,0.026,-0.036,0.003,0.010,0.003,-0.001,0.019,-0.004,-0.007,0.000,
1.628,0.027,-0.023,0.004,0.010,0.003,-0.001,0.022,-0.006,-0.010,0.000,
1.633,0.026,-0.005,0.005,0.010,0.003,-0.001,0.023,-0.007,-0.011,0.000,
1.635,0.026,0.019,0.004,0.010,0.003,-0.001,0.022,-0.007,-0.010,0.000,
1.637,0.028,0.040,-0.000,0.010,0.003,-0.001,0.019,-0.007,-0.009,0.000,
1.639,0.033,0.052,-0.009,0.010,0.003,-0.001,0.014,-0.005,-0.008,0.000,
1.641,0.039,0.054,-0.018,0.010,0.003,-0.001,0.008,-0.004,-0.008,0.000,
1.643,0.043,0.048,-0.025,0.010,0.003,-0.001,0.004,-0.003,-0.007,0.000,
1.645,0.045,0.035,-0.026,0.010,0.003,-0.001,0.001,-0.004,-0.005,0.000,
1.647,0.042,0.021,-0.019,0.010,0.003,-0.001,-0.000,-0.005,-0.003,0.000,
1.649,0.034,0.010,-0.008,0.011,0.003,-0.001,-0.001,-0.007,0.001,0.000,
1.651,0.020,0.004,0.005,0.011,0.003,-0.001,-0.001,-0.007,0.004,0.000,
1.653,0.002,0.005,0.015,0.011,0.003,-0.001,0.001,-0.007,0.006,0.000,
1.657,-0.016,0.007,0.021,0.011,0.003,-0.001,0.003,-0.007,0.008,0.000,
1.659,-0.030,0.014,0.023,0.011,0.003,-0.001,0.006,-0.005,0.008,0.000,
1.661,-0.032,0.023,0.022,0.011,0.003,-0.001,0.007,-0.002,0.008,0.000,
1.663,-0.023,0.029,0.021,0.010,0.003,-0.001,0.006,-0.001,0.008,0.000,
1.665,-0.009,0.031,0.019,0.010,0.004,-0.001,0.005,-0.000,0.006,0.000,
1.667,0.005,0.033,0.016,0.010,0.004,-0.001,0.004,-0.000,0.005,0.000,
1.669,0.014,0.034,0.011,0.010,0.004,-0.001,0.004,-0.001,0.003,0.000,
1.671,0.016,0.035,0.006,0.010,0.004,-0.001,0.002,-0.001,0.001,0.000,
1.673,0.013,0.032,0.003,0.010,0.004,-0.001,0.001,-0.000,-0.001,0.000,
1.675,0.009,0.024,0.004,0.011,0.004,-0.001,-0.001,0.001,-0.003,0.000,
1.677,0.008,0.014,0.006,0.011,0.004,-0.001,-0.002,0.002,-0.005,0.000,
1.679,0.010,0.005,0.008,0.011,0.004,-0.001,-0.003,0.002,-0.006,0.000,
1.684,0.014,-0.003,0.011,0.011,0.004,-0.001,-0.003,0.002,-0.008,0.000,
1.686,0.016,-0.007,0.013,0.011,0.004,-0.001,-0.001,0.000,-0.007,0.000,
1.688,0.017,-0.009,0.014,0.011,0.004,-0.001,0.001,-0.002,-0.005,0.000,
1.690,0.016,-0.007,0.012,0.011,0.004,-0.001,0.002,-0.005,-0.003,0.000,
1.692,0.014,-0.003,0.009,0.011,0.004,-0.001,0.002,-0.007,0.000,0.000,
1.694,0.011,0.002,0.004,0.011,0.004,-0.001,-0.000,-0.007,0.002,0.000,
1.696,0.010,0.009,-0.003,0.011,0.004,-0.001,-0.004,-0.005,0.003,0.000,
1.698,0.010,0.013,-0.010,0.011,0.004,-0.001,-0.006,-0.003,0.003,0.000,
1.700,0.013,0.013,-0.014,0.011,0.004,-0.001,-0.007,-0.000,0.003,0.000,
1.702,0.017,0.011,-0.016,0.011,0.004,-0.001,-0.006,0.001,0.002,0.000,
1.704,0.022,0.007,-0.017,0.011,0.004,-0.001,-0.003,0.002,0.002,0.000,
1.706,0.025,0.000,-0.019,0.011,0.004,-0.001,-0.000,0.003,0.001,0.000,
1.711,0.025,-0.008,-0.021,0.011,0.004,-0.001,0.002,0.002,0.001,0.000,
1.713,0.017,-0.013,-0.026,0.011,0.004,-0.001,0.005,0.000,-0.000,0.000,
1.715,0.005,-0.013,-0.030,0.011,0.004,-0.001,0.006,-0.003,-0.002,0.000,
1.717,-0.007,-0.010,-0.032,0.011,0.004,-0.001,0.006,-0.006,-0.003,0.000,
1.719,-0.016,-0.002,-0.032,0.011,0.004,-0.001,0.006,-0.009,-0.004,0.000,
1.721,-0.018,0.007,-0.031,0.011,0.004,-0.001,0.005,-0.012,-0.004,0.000,
1.723,-0.017,0.014,-0.029,0.011,0.004,-0.001,0.006,-0.013,-0.003,0.000,
1.725,-0.017,0.018,-0.024,0.011,0.004,-0.001,0.006,-0.014,-0.002,0.000,
1.727,-0.021,0.021,-0.016,0.011,0.004,-0.001,0.007,-0.013,-0.001,0.000,
1.729,-0.029,0.025,-0.006,0.011,0.004,-0.001,0.007,-0.011,-0.001,0.000,
1.731,-0.042,0.030,0.005,0.011,0.004,-0.001,0.006,-0.009,-0.001,0.000,
1.735,-0.057,0.035,0.014,0.011,0.004,-0.001,0.005,-0.008,-0.002,0.000,
1.737,-0.074,0.035,0.023,0.011,0.004,-0.001,0.005,-0.009,-0.004,0.000,
1.739,-0.087,0.031,0.030,0.010,0.004,-0.001,0.005,-0.012,-0.008,0.000,
1.741,-0.092,0.025,0.032,0.010,0.004,-0.001,0.008,-0.015,-0.010,0.000,
1.743,-0.087,0.019,0.032,0.010,0.004,-0.001,0.011,-0.017,-0.011,0.000,
1.745,-0.074,0.017,0.030,0.010,0.004,-0.001,0.012,-0.017,-0.011,0.000,
1.747,-0.056,0.019,0.030,0.010,0.004,-0.001,0.012,-0.016,-0.011,0.000,
1.749,-0.038,0.025,0.030,0.010,0.005,-0.001,0.010,-0.015,-0.011,0.000,
1.751,-0.022,0.034,0.032,0.010,0.005,-0.001,0.007,-0.013,-0.011,0.000,
1.753,-0.007,0.044,0.032,0.010,0.005,-0.001,0.004,-0.011,-0.013,0.000,
1.755,0.005,0.052,0.029,0.010,0.005,-0.001,-0.000,-0.008,-0.014,0.000,
1.757,0.018,0.058,0.021,0.010,0.005,-0.001,-0.004,-0.004,-0.014,0.000,
1.762,0.029,0.060,0.010,0.010,0.005,-0.001,-0.006,0.000,-0.013,0.000,
1.764,0.032,0.057,-0.004,0.010,0.005,-0.001,-0.008,0.006,-0.011,0.000,
1.766,0.023,0.049,-0.013,0.010,0.005,-0.001,-0.008,0.011,-0.007,0.000,
1.768,0.005,0.039,-0.017,0.010,0.005,-0.001,-0.009,0.015,-0.004,0.000,
1.770,-0.016,0.027,-0.014,0.010,0.005,-0.001,-0.008,0.016,-0.002,0.000,
1.772,-0.032,0.016,-0.012,0.010,0.005,-0.001,-0.007,0.015,-0.001,0.000,
1.774,-0.042,0.006,-0.012,0.010,0.005,-0.001,-0.006,0.012,-0.001,0.000,
1.776,-0.045,-0.003,-0.014,0.010,0.005,-0.001,-0.005,0.010,-0.002,0.000,
1.778,-0.042,-0.013,-0.017,0.009,0.005,-0.001,-0.004,0.008,-0.002,0.000,
1.780,-0.037,-0.022,-0.018,0.009,0.005,-0.001,-0.002,0.007,-0.002,0.000,
1.782,-0.034,-0.026,-0.018,0.009,0.005,-0.001,0.001,0.006,-0.002,0.000,
1.786,-0.031,-0.024,-0.016,0.009,0.005,-0.001,0.005,0.005,-0.001,0.000,
1.788,-0.027,-0.015,-0.012,0.009,0.005,-0.001,0.007,0.004,-0.000,0.000,
1.790,-0.022,-0.003,-0.006,0.009,0.005,-0.001,0.006,0.002,0.001,0.000,
1.792,-0.016,0.004,-0.001,0.009,0.005,-0.001,0.002,-0.001,0.002,0.000,
1.794,-0.011,0.002,0.001,0.009,0.005,-0.001,-0.004,-0.004,0.003,0.000,
1.796,-0.009,-0.008,0.002,0.009,0.005,-0.001,-0.010,-0.007,0.004,0.000,
1.798,-0.007,-0.023,0.001,0.009,0.005,-0.001,-0.013,-0.008,0.005,0.000,
1.800,-0.006,-0.036,-0.001,0.009,0.005,-0.001,-0.013,-0.007,0.006,0.000,
1.802,-0.003,-0.041,-0.003,0.009,0.005,-0.001,-0.008,-0.004,0.007,0.000,
1.804,0.002,-0.037,-0.005,0.009,0.005,-0.001,-0.002,-0.000,0.008,0.000,
1.806,0.008,-0.024,-0.008,0.009,0.005,-0.001,0.005,0.003,0.009,0.000,
1.808,0.012,-0.004,-0.010,0.009,0.005,-0.001,0.009,0.004,0.010,0.000,
1.813,0.014,0.018,-0.011,0.009,0.005,-0.001,0.011,0.004,0.011,0.000,
1.815,0.023,0.039,-0.009,0.009,0.005,-0.001,0.010,0.002,0.011,0.000,
1.817,0.032,0.049,-0.006,0.009,0.005,-0.001,0.007,0.001,0.009,0.000,
1.819,0.038,0.046,-0.005,0.009,0.005,-0.001,0.005,0.001,0.006,0.000,
1.821,0.039,0.035,-0.005,0.009,0.005,-0.001,0.005,0.003,0.003,0.000,
1.823,0.032,0.022,-0.004,0.009,0.005,-0.001,0.006,0.005,0.001,0.000,
1.825,0.018,0.012,-0.001,0.009,0.005,-0.001,0.007,0.007,-0.000,0.000,
1.827,-0.000,0.005,0.002,0.009,0.005,-0.001,0.009,0.008,-0.001,0.000,
1.829,-0.020,0.002,0.005,0.009,0.005,-0.001,0.010,0.008,-0.002,0.000,
1.831,-0.036,0.002,0.004,0.009,0.005,-0.001,0.010,0.006,-0.003,0.000,
1.833,-0.046,0.003,0.002,0.009,0.005,-0.001,0.010,0.005,-0.003,0.000,
1.835,-0.050,0.006,0.000,0.009,0.005,-0.001,0.010,0.003,-0.002,0.000,
1.839,-0.051,0.010,0.000,0.009,0.005,-0.001,0.010,0.003,-0.003,0.000,
1.841,-0.050,0.020,0.001,0.009,0.005,-0.001,0.010,0.005,-0.001,0.000,
1.843,-0.047,0.035,0.002,0.009,0.005,-0.001,0.010,0.008,0.001,0.000,
1.845,-0.039,0.047,0.004,0.009,0.005,-0.001,0.009,0.011,0.003,0.000,
1.847,-0.025,0.053,0.005,0.009,0.006,-0.001,0.008,0.012,0.006,0.000,
1.849,-0.009,0.051,0.006,0.009,0.006,-0.001,0.006,0.011,0.008,0.000,
1.851,0.006,0.043,0.007,0.009,0.006,-0.001,0.003,0.009,0.009,0.000,
1.853,0.018,0.031,0.009,0.009,0.006,-0.001,0.001,0.007,0.008,0.000,
1.855,0.026,0.015,0.012,0.009,0.006,-0.001,-0.000,0.004,0.006,0.000,
1.857,0.027,-0.003,0.016,0.009,0.006,-0.001,-0.001,0.003,0.003,0.000,
1.859,0.023,-0.021,0.021,0.009,0.006,-0.001,-0.000,0.002,0.001,0.000,
1.864,0.013,-0.036,0.028,0.009,0.006,-0.001,0.002,0.001,-0.001,0.000,
1.866,-0.002,-0.041,0.029,0.009,0.006,-0.001,0.004,0.000,-0.003,0.000,
1.868,-0.012,-0.034,0.022,0.009,0.006,-0.001,0.006,-0.001,-0.005,0.000,
1.870,-0.016,-0.019,0.011,0.009,0.006,-0.001,0.005,-0.001,-0.007,0.000,
1.872,-0.014,-0.006,0.001,0.009,0.006,-0.001,0.003,-0.002,-0.009,0.000,
1.874,-0.009,0.002,-0.008,0.009,0.006,-0.001,-0.001,-0.003,-0.011,0.000,
1.876,-0.004,0.002,-0.013,0.009,0.006,-0.001,-0.004,-0.005,-0.014,0.000,
1.878,0.000,-0.003,-0.016,0.009,0.006,-0.001,-0.006,-0.007,-0.016,0.000,
1.880,0.002,-0.008,-0.016,0.009,0.006,-0.001,-0.006,-0.009,-0.017,0.000,
1.882,0.000,-0.009,-0.015,0.009,0.006,-0.001,-0.004,-0.010,-0.016,0.000,
1.884,-0.003,-0.007,-0.012,0.009,0.006,-0.001,-0.001,-0.012,-0.014,0.000,
1.886,-0.007,-0.002,-0.010,0.009,0.006,-0.001,0.002,-0.012,-0.012,0.000,
1.890,-0.009,0.003,-0.007,0.009,0.006,-0.001,0.003,-0.013,-0.009,0.000,
1.892,-0.010,0.010,-0.001,0.009,0.006,-0.001,0.003,-0.013,-0.006,0.000,
1.894,-0.005,0.015,0.006,0.009,0.006,-0.001,0.001,-0.012,-0.004,0.000,
1.896,0.005,0.018,0.010,0.009,0.006,-0.001,-0.002,-0.012,-0.003,0.000,
1.898,0.016,0.022,0.009,0.009,0.006,-0.001,-0.003,-0.011,-0.002,0.000,
1.900,0.028,0.026,0.003,0.009,0.006,-0.001,-0.004,-0.008,-0.001,0.000,
1.902,0.040,0.032,-0.002,0.009,0.006,-0.001,-0.004,-0.006,-0.001,0.000,
1.904,0.052,0.035,-0.006,0.009,0.006,-0.001,-0.003,-0.003,-0.001,0.000,
1.906,0.062,0.035,-0.007,0.009,0.006,-0.001,-0.003,0.000,-0.002,0.000,
1.908,0.068,0.031,-0.005,0.009,0.006,-0.001,-0.004,0.002,-0.003,0.000,
1.910,0.070,0.026,-0.002,0.009,0.006,-0.001,-0.005,0.003,-0.006,0.000,
1.912,0.069,0.018,0.001,0.009,0.006,-0.001,-0.006,0.002,-0.009,0.000,
1.917,0.067,0.008,0.003,0.010,0.006,-0.001,-0.005,0.002,-0.011,0.000,
1.919,0.067,-0.009,0.002,0.010,0.006,-0.001,-0.000,0.001,-0.011,0.000,
1.921,0.068,-0.026,-0.003,0.010,0.006,-0.001,0.006,0.002,-0.010,0.000,
1.923,0.070,-0.036,-0.010,0.010,0.006,-0.001,0.011,0.002,-0.006,0.000,
1.925,0.071,-0.035,-0.019,0.010,0.006,-0.001,0.014,0.002,-0.003,0.000,
1.927,0.072,-0.024,-0.027,0.010,0.006,-0.001,0.015,0.002,-0.002,0.000,
1.929,0.071,-0.008,-0.034,0.010,0.006,-0.001,0.013,0.001,-0.002,0.000,
1.931,0.069,0.008,-0.038,0.011,0.006,-0.001,0.011,-0.000,-0.003,0.000,
1.933,0.070,0.021,-0.040,0.011,0.006,-0.001,0.009,-0.001,-0.005,0.000,
1.935,0.072,0.031,-0.041,0.011,0.006,-0.001,0.008,-0.002,-0.008,0.000,
1.937,0.072,0.035,-0.040,0.011,0.006,-0.001,0.007,-0.002,-0.010,0.000,
1.941,0.068,0.034,-0.037,0.011,0.006,-0.001,0.007,-0.001,-0.010,0.000,
1.943,0.055,0.029,-0.032,0.011,0.006,-0.001,0.005,-0.000,-0.009,0.000,
1.945,0.033,0.019,-0.025,0.011,0.006,-0.001,0.002,-0.000,-0.008,0.000,
1.947,0.011,0.004,-0.019,0.011,0.006,-0.001,-0.001,-0.001,-0.008,0.000,
1.949,-0.005,-0.013,-0.015,0.011,0.006,-0.002,-0.002,-0.002,-0.008,0.000,
1.951,-0.012,-0.028,-0.014,0.011,0.006,-0.002,-0.001,-0.004,-0.009,0.000,
1.953,-0.010,-0.036,-0.017,0.011,0.006,-0.002,0.002,-0.006,-0.010,0.000,
1.955,-0.003,-0.035,-0.022,0.011,0.006,-0.002,0.006,-0.009,-0.011,0.000,
1.957,0.006,-0.024,-0.028,0.011,0.006,-0.002,0.009,-0.012,-0.011,0.000,
1.959,0.012,-0.006,-0.035,0.011,0.006,-0.002,0.012,-0.013,-0.010,0.000,
1.961,0.014,0.013,-0.043,0.011,0.006,-0.002,0.013,-0.013,-0.009,0.000,
1.963,0.014,0.030,-0.049,0.011,0.006,-0.002,0.012,-0.012,-0.007,0.000,
1.968,0.015,0.043,-0.054,0.011,0.006,-0.002,0.010,-0.008,-0.006,0.000,
1.970,0.015,0.046,-0.052,0.011,0.006,-0.002,0.008,-0.001,-0.005,0.000,
1.972,0.013,0.037,-0.046,0.012,0.006,-0.002,0.006,0.006,-0.004,0.000,
1.974,0.008,0.018,-0.041,0.012,0.006,-0.002,0.007,0.011,-0.004,0.000,
1.976,0.002,-0.004,-0.038,0.012,0.006,-0.002,0.009,0.015,-0.004,0.000,
1.978,-0.000,-0.023,-0.036,0.012,0.006,-0.002,0.011,0.015,-0.003,0.000,
1.980,0.004,-0.034,-0.032,0.012,0.006,-0.003,0.013,0.014,-0.001,0.000,
1.982,0.014,-0.038,-0.026,0.012,0.006,-0.003,0.013,0.012,-0.000,0.000,
1.984,0.026,-0.036,-0.018,0.012,0.006,-0.003,0.013,0.009,0.001,0.000,
1.986,0.036,-0.032,-0.009,0.012,0.006,-0.003,0.013,0.004,0.001,0.000,
1.988,0.042,-0.031,-0.003,0.012,0.006,-0.003,0.014,-0.001,0.001,0.000,
1.990,0.044,-0.034,-0.002,0.012,0.006,-0.003,0.013,-0.004,0.000,0.000,
1.994,0.042,-0.035,-0.004,0.012,0.006,-0.003,0.010,-0.006,0.000,0.000,
1.996,0.031,-0.032,-0.006,0.012,0.006,-0.003,0.006,-0.003,0.000,0.000,
1.998,0.010,-0.025,-0.002,0.012,0.006,-0.003,0.001,0.002,-0.001,0.000,
2.000,-0.012,-0.018,0.006,0.012,0.006,-0.003,-0.001,0.007,-0.003,0.000,
2.002,-0.031,-0.013,0.014,0.012,0.006,-0.003,-0.001,0.011,-0.004,0.000,
2.004,-0.043,-0.012,0.019,0.012,0.006,-0.003,0.001,0.013,-0.005,0.000,
2.006,-0.051,-0.014,0.021,0.012,0.006,-0.003,0.002,0.013,-0.006,0.000,
2.008,-0.054,-0.018,0.019,0.012,0.006,-0.003,0.002,0.011,-0.006,0.000,
2.010,-0.055,-0.022,0.015,0.012,0.006,-0.003,0.002,0.009,-0.006,0.000,
2.012,-0.052,-0.024,0.012,0.012,0.005,-0.003,0.002,0.006,-0.005,0.000,
2.014,-0.045,-0.020,0.008,0.011,0.005,-0.003,0.001,0.005,-0.003,0.000,
2.019,-0.033,-0.012,0.007,0.011,0.005,-0.002,-0.000,0.004,0.000,0.000,
2.021,-0.014,0.002,0.006,0.011,0.005,-0.002,-0.002,0.002,0.004,0.000,
2.023,0.002,0.016,0.005,0.011,0.005,-0.002,-0.003,0.001,0.007,0.000,
2.025,0.011,0.024,0.005,0.011,0.005,-0.002,-0.003,0.001,0.009,0.000,
2.027,0.010,0.026,0.003,0.011,0.005,-0.002,-0.002,0.002,0.009,0.000,
2.029,0.001,0.023,-0.001,0.011,0.006,-0.002,-0.001,0.004,0.007,0.000,
2.031,-0.012,0.017,-0.007,0.011,0.006,-0.002,0.000,0.007,0.005,0.000,
2.033,-0.024,0.010,-0.013,0.011,0.006,-0.002,0.001,0.010,0.003,0.000,
2.035,-0.035,0.004,-0.018,0.011,0.006,-0.002,0.003,0.013,0.002,0.000,
2.037,-0.043,0.000,-0.019,0.011,0.006,-0.003,0.005,0.014,0.002,0.000,
2.039,-0.050,-0.001,-0.018,0.011,0.006,-0.003,0.006,0.014,0.003,0.000,
2.041,-0.055,0.001,-0.018,0.011,0.006,-0.003,0.008,0.012,0.004,0.000,
2.045,-0.058,0.005,-0.019,0.011,0.006,-0.003,0.009,0.009,0.005,0.000,
2.047,-0.060,0.014,-0.024,0.011,0.006,-0.003,0.011,0.007,0.003,0.000,
2.049,-0.059,0.025,-0.027,0.011,0.006,-0.003,0.015,0.005,0.001,0.000,
2.051,-0.055,0.034,-0.029,0.011,0.006,-0.003,0.017,0.005,-0.002,0.000,
2.053,-0.053,0.040,-0.030,0.010,0.006,-0.003,0.018,0.006,-0.004,0.000,
2.055,-0.050,0.039,-0.030,0.010,0.006,-0.003,0.017,0.008,-0.005,0.000,
2.057,-0.049,0.031,-0.029,0.010,0.006,-0.003,0.015,0.009,-0.004,0.000,
2.059,-0.047,0.019,-0.027,0.010,0.006,-0.003,0.012,0.009,-0.002,0.000,
2.061,-0.046,0.006,-0.023,0.010,0.006,-0.003,0.010,0.008,-0.001,0.000,
2.063,-0.048,-0.007,-0.016,0.010,0.006,-0.003,0.009,0.007,-0.000,0.000,
2.065,-0.050,-0.016,-0.008,0.010,0.006,-0.003,0.008,0.007,-0.000,0.000,
2.070,-0.050,-0.020,-0.001,0.010,0.006,-0.003,0.007,0.007,-0.001,0.000,
2.072,-0.047,-0.015,-0.001,0.010,0.006,-0.003,0.006,0.006,-0.002,0.000,
2.074,-0.041,-0.002,-0.006,0.010,0.006,-0.003,0.005,0.005,-0.003,0.000,
2.076,-0.035,0.017,-0.012,0.009,0.006,-0.003,0.004,0.005,-0.002,0.000,
2.078,-0.029,0.036,-0.017,0.009,0.006,-0.003,0.004,0.004,-0.001,0.000,
2.080,-0.024,0.050,-0.019,0.009,0.006,-0.003,0.003,0.003,-0.001,0.000,
2.082,-0.019,0.055,-0.019,0.009,0.006,-0.003,0.002,0.003,-0.001,0.000,
2.084,-0.018,0.049,-0.017,0.009,0.006,-0.003,0.001,0.005,-0.003,0.000,
2.086,-0.021,0.035,-0.013,0.009,0.006,-0.003,-0.001,0.007,-0.006,0.000,
2.088,-0.031,0.013,-0.006,0.009,0.006,-0.003,-0.002,0.009,-0.008,0.000,
2.090,-0.047,-0.012,0.004,0.009,0.006,-0.003,-0.002,0.010,-0.010,0.000,
2.092,-0.065,-0.036,0.014,0.009,0.006,-0.003,-0.000,0.009,-0.010,0.000,
2.096,-0.081,-0.053,0.025,0.009,0.006,-0.003,0.002,0.006,-0.008,0.000,
2.098,-0.089,-0.056,0.033,0.009,0.006,-0.003,0.004,0.000,-0.006,0.000,
2.101,-0.087,-0.048,0.035,0.009,0.006,-0.003,0.006,-0.007,-0.003,0.000,
2.102,-0.071,-0.032,0.032,0.008,0.006,-0.003,0.007,-0.012,-0.003,0.000,
2.104,-0.044,-0.014,0.025,0.008,0.006,-0.003,0.006,-0.016,-0.004,0.000,
2.107,-0.013,0.001,0.017,0.008,0.006,-0.003,0.004,-0.017,-0.006,0.000,
2.108,0.015,0.012,0.009,0.008,0.006,-0.003,0.003,-0.016,-0.008,0.000,
2.111,0.038,0.018,0.002,0.008,0.006,-0.003,0.000,-0.014,-0.010,0.000,
2.112,0.055,0.020,-0.002,0.008,0.006,-0.003,-0.002,-0.011,-0.010,0.000,
2.114,0.067,0.020,-0.001,0.008,0.006,-0.003,-0.005,-0.009,-0.009,0.000,
2.117,0.073,0.016,0.003,0.008,0.006,-0.003,-0.007,-0.007,-0.006,0.000,
2.118,0.073,0.008,0.008,0.009,0.006,-0.003,-0.009,-0.006,-0.003,0.000,
2.123,0.067,-0.004,0.016,0.009,0.006,-0.003,-0.010,-0.006,0.000,0.000,
2.125,0.054,-0.019,0.024,0.009,0.006,-0.003,-0.008,-0.007,0.002,0.000,
2.127,0.039,-0.030,0.029,0.009,0.006,-0.003,-0.005,-0.008,0.001,0.000,
2.129,0.023,-0.032,0.031,0.009,0.006,-0.003,-0.003,-0.009,0.000,0.000,
2.131,0.008,-0.026,0.030,0.009,0.006,-0.003,-0.001,-0.010,-0.001,0.000,
2.133,-0.006,-0.016,0.027,0.009,0.006,-0.003,0.001,-0.008,-0.001,0.000,
2.135,-0.015,-0.005,0.024,0.009,0.006,-0.003,0.003,-0.006,-0.001,0.000,
2.137,-0.018,0.007,0.023,0.009,0.006,-0.003,0.003,-0.004,-0.001,0.000,
2.139,-0.016,0.020,0.021,0.009,0.006,-0.003,0.004,-0.001,-0.000,0.000,
2.141,-0.011,0.031,0.019,0.009,0.006,-0.003,0.003,0.002,0.000,0.000,
2.143,-0.007,0.037,0.015,0.009,0.006,-0.002,0.003,0.004,-0.000,0.000,
2.148,-0.004,0.034,0.010,0.009,0.006,-0.002,0.001,0.004,-0.001,0.000,
2.150,-0.011,0.015,0.005,0.009,0.006,-0.002,-0.001,0.002,-0.003,0.000,
2.152,-0.022,-0.009,0.001,0.009,0.006,-0.002,-0.002,-0.002,-0.005,0.000,
2.154,-0.034,-0.028,-0.003,0.009,0.006,-0.002,-0.002,-0.006,-0.008,0.000,
2.156,-0.038,-0.039,-0.007,0.009,0.006,-0.002,-0.001,-0.010,-0.011,0.000,
2.158,-0.033,-0.044,-0.009,0.009,0.006,-0.002,0.001,-0.011,-0.014,0.000,
2.160,-0.020,-0.046,-0.011,0.009,0.006,-0.002,0.004,-0.012,-0.017,0.000,
2.162,-0.003,-0.044,-0.012,0.009,0.006,-0.002,0.008,-0.011,-0.020,0.000,
2.164,0.017,-0.040,-0.015,0.009,0.006,-0.002,0.011,-0.010,-0.022,0.000,
2.166,0.038,-0.035,-0.016,0.009,0.006,-0.003,0.013,-0.007,-0.022,0.000,
2.168,0.057,-0.029,-0.016,0.009,0.006,-0.003,0.014,-0.005,-0.020,0.000,
2.170,0.073,-0.021,-0.015,0.009,0.006,-0.003,0.013,-0.002,-0.017,0.000,
2.174,0.084,-0.012,-0.015,0.009,0.005,-0.003,0.012,0.001,-0.014,0.000,
2.176,0.090,-0.001,-0.018,0.009,0.005,-0.003,0.010,0.003,-0.013,0.000,
2.178,0.087,0.009,-0.023,0.009,0.005,-0.003,0.008,0.004,-0.014,0.000,
2.180,0.076,0.014,-0.029,0.010,0.005,-0.003,0.005,0.004,-0.015,0.000,
2.182,0.058,0.013,-0.031,0.010,0.005,-0.003,0.003,0.004,-0.016,0.000,
2.184,0.034,0.006,-0.029,0.010,0.006,-0.003,0.000,0.003,-0.016,0.000,
2.186,0.008,-0.003,-0.023,0.010,0.006,-0.003,-0.002,0.002,-0.015,0.000,
2.188,-0.014,-0.011,-0.017,0.010,0.006,-0.003,-0.004,0.001,-0.013,0.000,
2.190,-0.029,-0.015,-0.014,0.010,0.006,-0.003,-0.004,-0.001,-0.011,0.000,
2.192,-0.036,-0.016,-0.013,0.010,0.005,-0.003,-0.003,-0.001,-0.009,0.000,
2.194,-0.036,-0.015,-0.014,0.010,0.005,-0.003,-0.001,-0.000,-0.006,0.000,
2.196,-0.033,-0.012,-0.016,0.010,0.005,-0.003,0.002,0.001,-0.003,0.000,
2.201,-0.028,-0.010,-0.018,0.010,0.005,-0.003,0.003,0.004,-0.002,0.000,
2.203,-0.020,-0.014,-0.016,0.010,0.005,-0.003,0.003,0.006,-0.001,0.000,
2.205,-0.012,-0.018,-0.013,0.009,0.005,-0.003,0.002,0.008,-0.002,0.000,
2.207,-0.006,-0.022,-0.008,0.009,0.005,-0.003,0.001,0.009,-0.002,0.000,
2.209,-0.005,-0.023,-0.002,0.009,0.005,-0.003,0.002,0.008,-0.003,0.000,
2.211,-0.007,-0.023,0.005,0.009,0.005,-0.003,0.003,0.006,-0.004,0.000,
2.213,-0.009,-0.023,0.012,0.009,0.005,-0.003,0.004,0.004,-0.006,0.000,
2.215,-0.010,-0.024,0.017,0.009,0.005,-0.003,0.005,0.002,-0.007,0.000,
2.217,-0.008,-0.026,0.021,0.009,0.005,-0.003,0.006,0.000,-0.009,0.000,
2.219,0.001,-0.022,0.022,0.009,0.005,-0.003,0.005,-0.001,-0.010,0.000,
2.221,0.015,-0.012,0.022,0.009,0.005,-0.003,0.004,-0.001,-0.010,0.000,
2.226,0.029,0.003,0.021,0.009,0.005,-0.003,0.004,-0.000,-0.009,0.000,
2.228,0.037,0.019,0.022,0.009,0.005,-0.003,0.002,0.000,-0.007,0.000,
2.230,0.032,0.028,0.027,0.010,0.005,-0.003,-0.002,0.000,-0.006,0.000,
2.232,0.016,0.026,0.034,0.010,0.005,-0.003,-0.007,0.001,-0.006,0.000,
2.234,-0.004,0.017,0.040,0.010,0.005,-0.003,-0.012,0.000,-0.006,0.000,
2.236,-0.027,0.005,0.043,0.010,0.005,-0.003,-0.015,-0.001,-0.006,0.000,
2.238,-0.050,-0.008,0.043,0.010,0.005,-0.003,-0.017,-0.002,-0.006,0.000,
2.240,-0.069,-0.023,0.039,0.009,0.005,-0.003,-0.016,-0.004,-0.005,0.000,
2.242,-0.082,-0.035,0.035,0.009,0.005,-0.002,-0.013,-0.005,-0.004,0.000,
2.244,-0.087,-0.045,0.031,0.009,0.005,-0.002,-0.009,-0.006,-0.004,0.000,
2.246,-0.086,-0.051,0.026,0.009,0.005,-0.002,-0.003,-0.006,-0.005,0.000,
2.248,-0.081,-0.051,0.021,0.009,0.005,-0.002,0.002,-0.005,-0.005,0.000,
2.252,-0.072,-0.042,0.018,0.009,0.005,-0.002,0.008,-0.005,-0.005,0.000,
2.254,-0.055,-0.020,0.013,0.009,0.005,-0.002,0.010,-0.005,-0.005,0.000,
2.256,-0.034,0.004,0.008,0.008,0.005,-0.002,0.009,-0.004,-0.005,0.000,
2.258,-0.016,0.023,0.001,0.008,0.005,-0.002,0.005,-0.004,-0.004,0.000,
2.260,-0.004,0.032,-0.007,0.008,0.005,-0.002,-0.001,-0.004,-0.004,0.000,
2.262,0.001,0.030,-0.016,0.008,0.005,-0.002,-0.005,-0.003,-0.005,0.000,
2.264,-0.000,0.018,-0.024,0.008,0.005,-0.002,-0.008,-0.003,-0.006,0.000,
2.266,-0.006,-0.000,-0.031,0.008,0.005,-0.002,-0.008,-0.002,-0.006,0.000,
2.268,-0.014,-0.022,-0.038,0.008,0.005,-0.002,-0.006,0.000,-0.008,0.000,
2.270,-0.023,-0.045,-0.047,0.008,0.005,-0.002,-0.001,0.003,-0.009,0.000,
2.272,-0.028,-0.062,-0.055,0.008,0.005,-0.002,0.005,0.005,-0.009,0.000,
2.274,-0.029,-0.073,-0.059,0.008,0.005,-0.003,0.010,0.007,-0.008,0.000,
2.279,-0.025,-0.081,-0.059,0.008,0.004,-0.003,0.015,0.007,-0.006,0.000,
2.281,-0.014,-0.080,-0.056,0.008,0.004,-0.003,0.018,0.004,-0.004,0.000,
2.283,-0.001,-0.071,-0.054,0.008,0.004,-0.003,0.019,0.001,-0.001,0.000,
2.285,0.010,-0.057,-0.052,0.008,0.004,-0.003,0.019,-0.002,0.001,0.000,
2.287,0.019,-0.042,-0.050,0.008,0.004,-0.003,0.016,-0.002,0.002,0.000,
2.289,0.026,-0.028,-0.047,0.008,0.004,-0.003,0.013,-0.001,0.002,0.000,
2.291,0.034,-0.017,-0.043,0.008,0.004,-0.003,0.010,0.001,0.000,0.000,
2.293,0.039,-0.010,-0.039,0.008,0.004,-0.003,0.007,0.003,-0.002,0.000,
2.295,0.036,-0.010,-0.032,0.008,0.004,-0.004,0.005,0.005,-0.004,0.000,
2.297,0.025,-0.015,-0.021,0.008,0.004,-0.004,0.002,0.007,-0.007,0.000,
2.299,0.006,-0.023,-0.009,0.008,0.004,-0.004,0.001,0.008,-0.008,0.000,
2.303,-0.015,-0.033,-0.000,0.008,0.004,-0.004,-0.001,0.007,-0.009,0.000,
2.305,-0.038,-0.042,0.002,0.008,0.003,-0.004,-0.002,0.005,-0.009,0.000,
2.307,-0.056,-0.046,-0.003,0.008,0.003,-0.004,-0.001,0.004,-0.008,0.000,
2.309,-0.066,-0.044,-0.013,0.008,0.003,-0.004,0.001,0.003,-0.006,0.000,
2.311,-0.066,-0.037,-0.024,0.008,0.003,-0.004,0.005,0.003,-0.004,0.000,
2.313,-0.056,-0.026,-0.035,0.008,0.003,-0.004,0.008,0.003,-0.002,0.000,
2.315,-0.042,-0.014,-0.043,0.008,0.003,-0.004,0.010,0.004,-0.003,0.000,
2.317,-0.029,-0.001,-0.046,0.008,0.003,-0.004,0.009,0.005,-0.005,0.000,
2.319,-0.019,0.011,-0.042,0.008,0.003,-0.004,0.007,0.007,-0.007,0.000,
2.321,-0.016,0.020,-0.034,0.008,0.003,-0.004,0.004,0.009,-0.009,0.000,
2.323,-0.017,0.026,-0.022,0.008,0.003,-0.004,0.002,0.011,-0.009,0.000,
2.325,-0.020,0.026,-0.012,0.008,0.003,-0.004,0.001,0.014,-0.009,0.000,
2.330,-0.023,0.022,-0.005,0.008,0.003,-0.004,0.000,0.016,-0.008,0.000,
2.332,-0.026,0.018,-0.003,0.007,0.003,-0.004,0.001,0.017,-0.007,0.000,
2.334,-0.029,0.013,-0.005,0.007,0.003,-0.004,0.003,0.017,-0.006,0.000,
2.336,-0.029,0.009,-0.009,0.007,0.003,-0.004,0.004,0.015,-0.004,0.000,
2.338,-0.022,0.005,-0.016,0.007,0.003,-0.004,0.004,0.013,-0.003,0.000,
2.340,-0.010,0.007,-0.026,0.007,0.003,-0.004,0.004,0.011,-0.002,0.000,
2.342,0.006,0.014,-0.038,0.007,0.003,-0.004,0.004,0.010,-0.001,0.000,
2.344,0.023,0.024,-0.046,0.007,0.003,-0.004,0.004,0.010,-0.001,0.000,
2.346,0.038,0.034,-0.047,0.007,0.003,-0.004,0.005,0.012,-0.001,0.000,
2.348,0.049,0.041,-0.041,0.007,0.004,-0.005,0.007,0.013,-0.001,0.000,
2.350,0.055,0.042,-0.028,0.007,0.004,-0.005,0.008,0.013,-0.001,0.000,
2.354,0.056,0.038,-0.012,0.008,0.004,-0.005,0.008,0.010,0.000,0.000,
2.356,0.046,0.024,0.002,0.008,0.004,-0.005,0.007,0.005,0.002,0.000,
2.358,0.025,0.004,0.010,0.008,0.004,-0.005,0.004,-0.001,0.005,0.000,
2.360,0.005,-0.012,0.013,0.008,0.004,-0.005,0.003,-0.005,0.008,0.000,
2.362,-0.006,-0.020,0.013,0.008,0.004,-0.005,0.004,-0.008,0.011,0.000,
2.364,-0.007,-0.017,0.013,0.008,0.004,-0.005,0.006,-0.009,0.013,0.000,
2.366,0.002,-0.004,0.013,0.008,0.004,-0.005,0.009,-0.008,0.015,0.000,
2.368,0.013,0.015,0.010,0.008,0.004,-0.005,0.012,-0.008,0.015,0.000,
2.370,0.025,0.036,0.005,0.008,0.004,-0.005,0.013,-0.008,0.015,0.000,
2.372,0.034,0.056,-0.005,0.008,0.004,-0.005,0.013,-0.008,0.013,0.000,
2.374,0.040,0.069,-0.017,0.008,0.004,-0.005,0.012,-0.007,0.011,0.000,
2.376,0.044,0.074,-0.028,0.008,0.004,-0.005,0.009,-0.005,0.008,0.000,
2.381,0.047,0.067,-0.032,0.008,0.004,-0.005,0.007,-0.003,0.005,0.000,
2.383,0.044,0.045,-0.022,0.008,0.004,-0.005,0.006,-0.002,0.002,0.000,
2.385,0.037,0.016,-0.007,0.008,0.004,-0.005,0.006,-0.002,-0.002,0.000,
2.387,0.026,-0.011,0.005,0.008,0.004,-0.005,0.008,-0.002,-0.006,0.000,
2.389,0.014,-0.030,0.011,0.008,0.004,-0.005,0.011,-0.004,-0.009,0.000,
2.391,0.005,-0.038,0.009,0.008,0.004,-0.005,0.015,-0.005,-0.012,0.000,
2.393,0.001,-0.036,-0.001,0.008,0.004,-0.005,0.017,-0.004,-0.013,0.000,
2.395,0.004,-0.028,-0.016,0.008,0.004,-0.005,0.019,-0.003,-0.013,0.000,
2.397,0.012,-0.012,-0.031,0.009,0.004,-0.005,0.019,0.000,-0.011,0.000,
2.399,0.025,0.007,-0.043,0.009,0.004,-0.005,0.018,0.003,-0.008,0.000,
2.401,0.036,0.027,-0.051,0.009,0.004,-0.005,0.016,0.005,-0.004,0.000,
2.403,0.044,0.042,-0.055,0.009,0.004,-0.005,0.013,0.006,-0.000,0.000,
2.407,0.044,0.050,-0.054,0.009,0.004,-0.005,0.008,0.007,0.003,0.000,
2.409,0.031,0.039,-0.045,0.009,0.004,-0.005,0.004,0.007,0.002,0.000,
2.411,0.012,0.018,-0.034,0.009,0.004,-0.005,-0.000,0.005,-0.000,0.000,
2.413,-0.006,-0.003,-0.026,0.009,0.005,-0.005,-0.003,0.002,-0.004,0.000,
2.415,-0.019,-0.019,-0.023,0.009,0.005,-0.005,-0.005,-0.001,-0.007,0.000,
2.417,-0.026,-0.026,-0.025,0.009,0.004,-0.006,-0.006,-0.004,-0.009,0.000,
2.419,-0.028,-0.027,-0.027,0.009,0.004,-0.006,-0.008,-0.006,-0.008,0.000,
2.421,-0.027,-0.022,-0.031,0.009,0.004,-0.006,-0.009,-0.006,-0.006,0.000,
2.423,-0.020,-0.013,-0.035,0.009,0.004,-0.006,-0.010,-0.005,-0.004,0.000,
2.425,-0.010,-0.001,-0.039,0.009,0.004,-0.006,-0.009,-0.004,-0.002,0.000,
2.427,0.005,0.010,-0.043,0.009,0.004,-0.006,-0.007,-0.001,-0.001,0.000,
2.432,0.020,0.019,-0.047,0.009,0.004,-0.006,-0.004,0.002,-0.001,0.000,
2.434,0.041,0.033,-0.045,0.009,0.004,-0.006,-0.000,0.007,-0.004,0.000,
2.436,0.061,0.045,-0.037,0.009,0.004,-0.006,0.004,0.012,-0.006,0.000,
2.438,0.075,0.053,-0.024,0.009,0.005,-0.006,0.007,0.015,-0.009,0.000,
2.440,0.079,0.056,-0.010,0.009,0.005,-0.006,0.009,0.014,-0.010,0.000,
2.442,0.071,0.052,0.001,0.009,0.005,-0.006,0.010,0.012,-0.010,0.000,
2.444,0.054,0.044,0.009,0.009,0.005,-0.006,0.010,0.010,-0.010,0.000,
2.446,0.034,0.033,0.014,0.009,0.005,-0.006,0.010,0.007,-0.009,0.000,
2.448,0.013,0.017,0.014,0.010,0.005,-0.006,0.009,0.005,-0.009,0.000,
2.450,-0.006,-0.001,0.011,0.010,0.005,-0.006,0.009,0.003,-0.008,0.000,
2.452,-0.020,-0.020,0.006,0.010,0.005,-0.006,0.007,0.001,-0.007,0.000,
2.454,-0.025,-0.034,-0.001,0.009,0.005,-0.006,0.006,-0.000,-0.004,0.000,
2.459,-0.023,-0.038,-0.007,0.009,0.005,-0.006,0.004,-0.002,-0.001,0.000,
2.461,-0.009,-0.024,-0.015,0.009,0.005,-0.006,-0.001,-0.002,0.004,0.000,
2.463,0.007,-0.002,-0.024,0.009,0.005,-0.006,-0.006,-0.002,0.009,0.000,
2.465,0.021,0.021,-0.032,0.009,0.005,-0.006,-0.011,-0.001,0.012,0.000,
2.467,0.027,0.041,-0.039,0.009,0.005,-0.006,-0.014,0.000,0.013,0.000,
2.469,0.023,0.055,-0.041,0.009,0.005,-0.006,-0.015,0.001,0.011,0.000,
2.471,0.015,0.065,-0.038,0.010,0.005,-0.006,-0.015,0.002,0.006,0.000,
2.473,0.004,0.070,-0.033,0.010,0.005,-0.007,-0.014,0.002,-0.000,0.000,
2.475,-0.005,0.071,-0.027,0.010,0.005,-0.007,-0.013,0.002,-0.005,0.000,
2.477,-0.012,0.069,-0.018,0.010,0.005,-0.007,-0.012,0.001,-0.009,0.000,
2.479,-0.017,0.068,-0.008,0.010,0.006,-0.007,-0.011,0.000,-0.010,0.000,
2.481,-0.020,0.068,0.000,0.010,0.006,-0.007,-0.011,-0.000,-0.009,0.000,
2.485,-0.024,0.064,0.005,0.009,0.006,-0.007,-0.010,-0.001,-0.007,0.000,
2.487,-0.027,0.055,0.004,0.009,0.006,-0.007,-0.007,-0.003,-0.005,0.000,
2.489,-0.023,0.045,0.000,0.009,0.006,-0.007,-0.002,-0.006,-0.003,0.000,
2.491,-0.013,0.034,-0.005,0.009,0.006,-0.007,0.002,-0.008,-0.001,0.000,
2.493,-0.001,0.026,-0.011,0.009,0.006,-0.007,0.006,-0.009,-0.001,0.000,
2.495,0.007,0.020,-0.017,0.009,0.006,-0.007,0.008,-0.007,-0.002,0.000,
2.497,0.007,0.018,-0.023,0.009,0.006,-0.007,0.008,-0.004,-0.003,0.000,
2.499,-0.001,0.016,-0.026,0.009,0.006,-0.007,0.006,-0.001,-0.004,0.000,
2.501,-0.015,0.011,-0.026,0.009,0.006,-0.007,0.005,0.001,-0.005,0.000,
2.503,-0.030,0.004,-0.025,0.009,0.006,-0.007,0.003,0.000,-0.005,0.000,
2.505,-0.046,-0.004,-0.022,0.009,0.006,-0.007,0.003,-0.002,-0.005,0.000,
2.510,-0.059,-0.011,-0.020,0.009,0.006,-0.007,0.004,-0.005,-0.005,0.000,
2.512,-0.064,-0.009,-0.010,0.009,0.006,-0.007,0.005,-0.008,-0.003,0.000,
2.514,-0.057,0.000,0.003,0.009,0.006,-0.007,0.005,-0.011,-0.000,0.000,
2.516,-0.043,0.011,0.014,0.009,0.006,-0.007,0.004,-0.013,0.001,0.000,
2.518,-0.024,0.022,0.022,0.009,0.006,-0.007,0.002,-0.013,0.002,0.000,
2.520,-0.004,0.034,0.026,0.009,0.006,-0.007,0.001,-0.012,0.002,0.000,
2.522,0.016,0.045,0.025,0.009,0.007,-0.007,-0.001,-0.008,0.002,0.000,
2.524,0.034,0.054,0.018,0.009,0.007,-0.007,-0.002,-0.003,0.001,0.000,
2.526,0.048,0.056,0.008,0.009,0.007,-0.007,-0.002,0.002,0.001,0.000,
2.528,0.053,0.050,-0.003,0.009,0.007,-0.007,-0.003,0.005,-0.000,0.000,
2.530,0.050,0.037,-0.011,0.009,0.007,-0.007,-0.003,0.007,-0.001,0.000,
2.532,0.043,0.019,-0.012,0.009,0.007,-0.007,-0.003,0.007,-0.003,0.000,
2.536,0.035,0.000,-0.008,0.009,0.007,-0.007,-0.002,0.007,-0.006,0.000,
2.538,0.021,-0.019,0.000,0.009,0.007,-0.007,-0.001,0.008,-0.008,0.000,
2.540,0.004,-0.030,0.008,0.009,0.007,-0.007,0.002,0.010,-0.010,0.000,
2.542,-0.013,-0.032,0.014,0.009,0.007,-0.007,0.005,0.012,-0.011,0.000,
2.544,-0.027,-0.025,0.017,0.009,0.007,-0.007,0.007,0.011,-0.010,0.000,
2.546,-0.035,-0.012,0.016,0.009,0.007,-0.007,0.008,0.009,-0.009,0.000,
2.548,-0.036,0.003,0.010,0.009,0.007,-0.007,0.008,0.004,-0.008,0.000,
2.550,-0.031,0.016,0.002,0.009,0.007,-0.007,0.007,-0.001,-0.007,0.000,
2.552,-0.021,0.026,-0.002,0.009,0.007,-0.007,0.005,-0.005,-0.007,0.000,
2.554,-0.007,0.029,-0.001,0.009,0.007,-0.007,0.003,-0.007,-0.007,0.000,
2.556,0.003,0.026,0.003,0.009,0.007,-0.007,0.002,-0.008,-0.006,0.000,
2.558,0.006,0.017,0.010,0.009,0.007,-0.007,0.001,-0.007,-0.004,0.000,
2.563,0.002,0.008,0.017,0.009,0.007,-0.007,0.001,-0.007,-0.002,0.000,
2.565,-0.006,-0.008,0.024,0.009,0.007,-0.007,0.000,-0.007,-0.000,0.000,
2.567,-0.014,-0.024,0.026,0.009,0.007,-0.007,-0.000,-0.008,0.000,0.000,
2.569,-0.019,-0.036,0.025,0.009,0.007,-0.007,-0.001,-0.008,-0.001,0.000,
2.571,-0.021,-0.040,0.023,0.009,0.007,-0.007,-0.001,-0.008,-0.004,0.000,
2.573,-0.020,-0.034,0.020,0.009,0.007,-0.007,-0.001,-0.007,-0.006,0.000,
2.575,-0.017,-0.021,0.017,0.009,0.007,-0.006,-0.001,-0.006,-0.007,0.000,
2.577,-0.012,-0.006,0.014,0.009,0.007,-0.006,-0.000,-0.006,-0.007,0.000,
2.579,-0.009,0.010,0.012,0.009,0.007,-0.006,-0.001,-0.006,-0.007,0.000,
2.581,-0.005,0.025,0.010,0.009,0.007,-0.006,-0.002,-0.006,-0.008,0.000,
2.583,-0.003,0.036,0.009,0.009,0.007,-0.006,-0.004,-0.005,-0.010,0.000,
2.587,-0.002,0.041,0.011,0.009,0.007,-0.006,-0.005,-0.004,-0.013,0.000,
2.589,-0.006,0.035,0.017,0.009,0.007,-0.006,-0.005,-0.002,-0.017,0.000,
2.591,-0.014,0.020,0.024,0.009,0.007,-0.006,-0.004,-0.002,-0.019,0.000,
2.593,-0.024,-0.000,0.028,0.009,0.007,-0.006,-0.001,-0.004,-0.020,0.000,
2.595,-0.034,-0.021,0.029,0.009,0.007,-0.006,0.002,-0.007,-0.019,0.000,
2.597,-0.041,-0.040,0.030,0.009,0.007,-0.006,0.004,-0.011,-0.019,0.000,
2.599,-0.048,-0.054,0.032,0.008,0.007,-0.006,0.005,-0.015,-0.018,0.000,
2.601,-0.053,-0.062,0.034,0.008,0.007,-0.006,0.006,-0.019,-0.017,0.000,
2.603,-0.056,-0.066,0.033,0.008,0.007,-0.006,0.006,-0.021,-0.016,0.000,
2.605,-0.057,-0.066,0.029,0.008,0.007,-0.006,0.006,-0.020,-0.015,0.000,
2.607,-0.054,-0.059,0.024,0.008,0.006,-0.006,0.006,-0.019,-0.015,0.000,
2.609,-0.048,-0.044,0.015,0.008,0.006,-0.006,0.004,-0.017,-0.014,0.000,
2.614,-0.041,-0.024,0.002,0.008,0.006,-0.006,0.000,-0.014,-0.012,0.000,
2.616,-0.039,-0.003,-0.015,0.008,0.006,-0.006,-0.006,-0.009,-0.010,0.000,
2.618,-0.043,0.011,-0.027,0.008,0.006,-0.006,-0.010,-0.004,-0.008,0.000,
2.620,-0.051,0.013,-0.030,0.008,0.006,-0.006,-0.011,-0.000,-0.007,0.000,
2.622,-0.061,0.006,-0.026,0.007,0.006,-0.006,-0.010,0.001,-0.008,0.000,
2.624,-0.071,-0.006,-0.018,0.007,0.006,-0.006,-0.006,0.001,-0.008,0.000,
2.626,-0.079,-0.018,-0.010,0.007,0.006,-0.006,-0.001,-0.002,-0.007,0.000,
2.628,-0.084,-0.027,-0.005,0.007,0.006,-0.006,0.004,-0.006,-0.006,0.000,
2.630,-0.082,-0.034,-0.001,0.007,0.006,-0.006,0.008,-0.010,-0.003,0.000,
2.632,-0.074,-0.036,0.003,0.007,0.006,-0.006,0.010,-0.015,-0.001,0.000,
2.634,-0.058,-0.032,0.008,0.007,0.006,-0.006,0.012,-0.020,0.001,0.000,
2.638,-0.035,-0.023,0.013,0.006,0.006,-0.006,0.012,-0.024,0.003,0.000,
2.640,-0.001,-0.005,0.011,0.006,0.006,-0.006,0.011,-0.026,0.004,0.000,
2.642,0.036,0.016,0.004,0.006,0.006,-0.006,0.010,-0.025,0.003,0.000,
2.644,0.066,0.033,-0.004,0.006,0.006,-0.006,0.009,-0.022,0.001,0.000,
2.646,0.085,0.043,-0.009,0.007,0.006,-0.006,0.007,-0.017,-0.000,0.000,
2.648,0.092,0.044,-0.009,0.007,0.006,-0.006,0.005,-0.011,-0.002,0.000,
2.650,0.089,0.040,-0.003,0.007,0.006,-0.006,0.003,-0.004,-0.004,0.000,
2.652,0.078,0.033,0.003,0.007,0.006,-0.006,0.002,0.003,-0.006,0.000,
2.654,0.062,0.025,0.008,0.007,0.006,-0.006,0.001,0.008,-0.007,0.000,
2.656,0.043,0.016,0.012,0.007,0.006,-0.006,-0.000,0.012,-0.007,0.000,
2.658,0.020,0.006,0.016,0.007,0.006,-0.006,-0.002,0.014,-0.007,0.000,
2.660,-0.006,-0.004,0.019,0.007,0.006,-0.006,-0.002,0.014,-0.006,0.000,
2.665,-0.033,-0.010,0.020,0.007,0.006,-0.006,-0.002,0.013,-0.005,0.000,
2.667,-0.060,-0.008,0.017,0.007,0.006,-0.006,-0.001,0.011,-0.003,0.000,
2.669,-0.075,-0.002,0.016,0.007,0.006,-0.006,-0.000,0.007,0.000,0.000,
2.671,-0.077,0.004,0.016,0.007,0.006,-0.006,0.000,0.004,0.003,0.000,
2.673,-0.068,0.007,0.017,0.007,0.006,-0.006,-0.000,0.000,0.004,0.000,
2.675,-0.054,0.007,0.016,0.007,0.006,-0.006,-0.001,-0.002,0.004,0.000,
2.677,-0.037,0.003,0.016,0.007,0.006,-0.006,-0.002,-0.005,0.003,0.000,
2.679,-0.018,-0.007,0.016,0.007,0.006,-0.006,-0.003,-0.008,0.002,0.000,
2.681,0.002,-0.021,0.015,0.007,0.006,-0.006,-0.004,-0.010,0.001,0.000,
2.683,0.022,-0.038,0.011,0.007,0.006,-0.006,-0.004,-0.012,-0.000,0.000,
2.685,0.046,-0.055,0.008,0.007,0.006,-0.006,-0.003,-0.014,-0.002,0.000,
2.687,0.075,-0.067,0.006,0.007,0.006,-0.006,-0.001,-0.014,-0.004,0.000,
2.691,0.107,-0.070,0.004,0.007,0.006,-0.005,0.002,-0.015,-0.006,0.000,
2.693,0.145,-0.055,-0.005,0.007,0.006,-0.005,0.005,-0.014,-0.007,0.000,
2.695,0.179,-0.025,-0.023,0.007,0.006,-0.005,0.007,-0.010,-0.007,0.000,
2.697,0.204,0.011,-0.041,0.008,0.006,-0.006,0.007,-0.005,-0.006,0.000,
2.699,0.214,0.045,-0.054,0.008,0.006,-0.006,0.005,0.002,-0.004,0.000,
2.701,0.209,0.070,-0.057,0.009,0.006,-0.006,0.002,0.009,-0.003,0.000,
2.703,0.192,0.083,-0.049,0.009,0.006,-0.006,-0.002,0.015,-0.001,0.000,
2.705,0.166,0.086,-0.035,0.009,0.006,-0.006,-0.006,0.020,-0.000,0.000,
2.707,0.133,0.081,-0.020,0.010,0.006,-0.006,-0.009,0.022,0.000,0.000,
2.709,0.095,0.069,-0.009,0.010,0.006,-0.006,-0.010,0.023,-0.000,0.000,
2.711,0.054,0.053,-0.002,0.010,0.007,-0.006,-0.009,0.022,-0.001,0.000,
2.716,0.017,0.037,0.001,0.010,0.007,-0.006,-0.006,0.020,-0.001,0.000,
2.718,-0.017,0.021,0.000,0.010,0.007,-0.006,-0.002,0.015,-0.001,0.000,
2.720,-0.036,0.008,-0.001,0.010,0.007,-0.006,0.002,0.010,-0.002,0.000,
2.722,-0.038,0.001,-0.003,0.010,0.007,-0.006,0.006,0.005,-0.003,0.000,
2.724,-0.029,0.002,-0.005,0.010,0.007,-0.006,0.008,0.001,-0.003,0.000,
2.726,-0.016,0.010,-0.007,0.010,0.007,-0.006,0.010,-0.001,-0.003,0.000,
2.728,-0.003,0.023,-0.009,0.010,0.007,-0.006,0.011,-0.002,-0.004,0.000,
2.730,0.011,0.040,-0.014,0.010,0.007,-0.006,0.009,-0.002,-0.004,0.000,
2.732,0.027,0.058,-0.022,0.010,0.007,-0.006,0.005,-0.001,-0.006,0.000,
2.734,0.045,0.071,-0.029,0.010,0.007,-0.006,-0.001,-0.000,-0.007,0.000,
2.736,0.060,0.077,-0.035,0.010,0.007,-0.006,-0.008,0.002,-0.007,0.000,
2.738,0.071,0.075,-0.039,0.010,0.007,-0.006,-0.014,0.004,-0.008,0.000,
2.742,0.077,0.069,-0.042,0.011,0.008,-0.006,-0.018,0.005,-0.008,0.000,
2.744,0.081,0.062,-0.043,0.011,0.008,-0.006,-0.017,0.006,-0.008,0.000,
2.746,0.085,0.054,-0.040,0.011,0.008,-0.007,-0.012,0.005,-0.007,0.000,
2.748,0.086,0.044,-0.036,0.011,0.008,-0.007,-0.005,0.005,-0.005,0.000,
2.750,0.087,0.031,-0.031,0.011,0.008,-0.007,0.002,0.005,-0.002,0.000,
2.752,0.089,0.017,-0.025,0.011,0.008,-0.007,0.008,0.006,0.001,0.000,
2.754,0.089,0.004,-0.020,0.012,0.008,-0.007,0.012,0.007,0.003,0.000,
2.756,0.085,-0.005,-0.017,0.012,0.008,-0.007,0.014,0.008,0.005,0.000,
2.758,0.079,-0.011,-0.018,0.012,0.008,-0.007,0.015,0.010,0.006,0.000,
2.760,0.074,-0.017,-0.019,0.012,0.008,-0.007,0.015,0.013,0.006,0.000,
2.762,0.069,-0.022,-0.021,0.012,0.008,-0.007,0.015,0.015,0.006,0.000,
2.764,0.063,-0.027,-0.024,0.012,0.008,-0.007,0.015,0.016,0.004,0.000,
2.769,0.052,-0.031,-0.027,0.012,0.008,-0.007,0.014,0.013,0.001,0.000,
2.771,0.029,-0.033,-0.027,0.013,0.008,-0.007,0.011,0.007,-0.002,0.000,
2.773,0.005,-0.031,-0.026,0.013,0.008,-0.007,0.009,-0.001,-0.006,0.000,
2.775,-0.009,-0.024,-0.025,0.013,0.008,-0.007,0.008,-0.007,-0.008,0.000,
2.777,-0.014,-0.017,-0.025,0.013,0.008,-0.007,0.007,-0.012,-0.008,0.000,
2.779,-0.010,-0.012,-0.025,0.013,0.008,-0.007,0.008,-0.015,-0.006,0.000,
2.781,0.001,-0.010,-0.026,0.013,0.008,-0.007,0.009,-0.016,-0.003,0.000,
2.783,0.018,-0.006,-0.027,0.013,0.008,-0.007,0.010,-0.015,-0.000,0.000,
2.785,0.038,0.001,-0.026,0.013,0.008,-0.007,0.010,-0.013,0.001,0.000,
2.787,0.060,0.011,-0.023,0.013,0.008,-0.008,0.009,-0.010,0.000,0.000,
2.789,0.079,0.022,-0.016,0.013,0.008,-0.008,0.008,-0.007,-0.001,0.000,
2.793,0.092,0.030,-0.007,0.013,0.008,-0.008,0.006,-0.004,-0.003,0.000,
2.795,0.101,0.030,0.000,0.013,0.008,-0.008,0.003,0.001,-0.003,0.000,
2.797,0.102,0.022,0.007,0.013,0.008,-0.008,0.001,0.007,-0.003,0.000,
2.799,0.094,0.010,0.012,0.014,0.008,-0.008,0.001,0.012,-0.003,0.000,
2.801,0.080,0.002,0.015,0.014,0.008,-0.008,0.001,0.013,-0.005,0.000,
2.803,0.062,0.000,0.017,0.014,0.008,-0.008,0.002,0.013,-0.006,0.000,
2.805,0.044,0.005,0.020,0.014,0.008,-0.008,0.004,0.010,-0.007,0.000,
2.807,0.029,0.013,0.024,0.014,0.008,-0.008,0.005,0.006,-0.007,0.000,
2.809,0.021,0.022,0.027,0.014,0.008,-0.007,0.005,0.002,-0.006,0.000,
2.811,0.019,0.030,0.029,0.014,0.008,-0.007,0.004,-0.002,-0.004,0.000,
2.813,0.024,0.033,0.027,0.014,0.008,-0.007,0.003,-0.005,-0.002,0.000,
2.815,0.033,0.031,0.022,0.014,0.008,-0.007,0.001,-0.006,-0.001,0.000,
2.820,0.044,0.026,0.015,0.014,0.008,-0.007,-0.001,-0.006,0.000,0.000,
2.822,0.059,0.018,0.008,0.014,0.008,-0.007,-0.002,-0.002,0.000,0.000,
2.824,0.070,0.010,0.007,0.015,0.008,-0.007,-0.003,0.003,0.000,0.000,
2.826,0.076,0.001,0.014,0.015,0.008,-0.007,-0.005,0.008,0.000,0.000,
2.828,0.074,-0.010,0.026,0.015,0.008,-0.007,-0.007,0.009,0.000,0.000,
2.830,0.067,-0.023,0.038,0.015,0.008,-0.007,-0.009,0.009,0.001,0.000,
2.832,0.055,-0.039,0.046,0.015,0.008,-0.007,-0.011,0.008,0.001,0.000,
2.834,0.038,-0.052,0.049,0.015,0.008,-0.007,-0.011,0.005,0.002,0.000,
2.836,0.019,-0.058,0.047,0.015,0.008,-0.007,-0.010,0.002,0.002,0.000,
2.838,-0.002,-0.052,0.042,0.015,0.008,-0.007,-0.008,-0.001,0.002,0.000,
2.840,-0.020,-0.035,0.035,0.015,0.008,-0.007,-0.004,-0.003,0.002,0.000,
2.842,-0.032,-0.010,0.026,0.015,0.008,-0.007,0.000,-0.004,0.001,0.000,
2.847,-0.038,0.019,0.015,0.015,0.008,-0.007,0.003,-0.005,-0.001,0.000,
2.849,-0.045,0.061,0.003,0.015,0.008,-0.007,0.003,-0.004,-0.004,0.000,
2.851,-0.057,0.096,-0.006,0.015,0.008,-0.007,0.002,-0.002,-0.007,0.000,
2.853,-0.074,0.113,-0.008,0.015,0.008,-0.007,-0.000,-0.001,-0.009,0.000,
2.855,-0.095,0.108,-0.005,0.015,0.008,-0.007,-0.003,0.000,-0.010,0.000,
2.857,-0.118,0.085,0.002,0.015,0.008,-0.007,-0.005,0.000,-0.010,0.000,
2.859,-0.140,0.055,0.012,0.014,0.009,-0.007,-0.007,-0.001,-0.009,0.000,
2.861,-0.157,0.023,0.023,0.014,0.009,-0.007,-0.007,-0.004,-0.007,0.000,
2.863,-0.168,-0.006,0.032,0.014,0.009,-0.006,-0.007,-0.007,-0.004,0.000,
2.865,-0.172,-0.028,0.038,0.013,0.009,-0.006,-0.005,-0.009,-0.001,0.000,
2.867,-0.168,-0.040,0.042,0.013,0.009,-0.006,-0.003,-0.012,0.000,0.000,
2.871,-0.156,-0.042,0.043,0.013,0.009,-0.006,0.000,-0.014,0.001,0.000,
2.873,-0.120,-0.036,0.041,0.012,0.009,-0.006,0.004,-0.016,0.002,0.000,
2.875,-0.069,-0.024,0.034,0.012,0.009,-0.006,0.008,-0.017,0.002,0.000,
2.877,-0.011,-0.008,0.023,0.012,0.008,-0.006,0.010,-0.016,0.003,0.000,
2.879,0.045,0.011,0.010,0.012,0.008,-0.006,0.011,-0.014,0.005,0.000,
2.881,0.094,0.031,-0.003,0.012,0.008,-0.006,0.010,-0.011,0.006,0.000,
2.883,0.129,0.045,-0.016,0.012,0.009,-0.006,0.008,-0.008,0.007,0.000,
2.885,0.148,0.051,-0.026,0.013,0.009,-0.006,0.007,-0.005,0.006,0.000,
2.887,0.151,0.045,-0.030,0.013,0.009,-0.006,0.006,-0.003,0.004,0.000,
2.889,0.139,0.027,-0.030,0.013,0.009,-0.006,0.007,-0.001,0.001,0.000,
2.891,0.116,0.000,-0.027,0.013,0.009,-0.006,0.009,-0.000,-0.001,0.000,
2.893,0.086,-0.026,-0.023,0.014,0.009,-0.006,0.011,0.001,-0.002,0.000,
2.898,0.053,-0.047,-0.019,0.014,0.009,-0.006,0.014,0.003,-0.004,0.000,
2.900,0.006,-0.058,-0.022,0.014,0.009,-0.006,0.016,0.006,-0.004,0.000,
2.902,-0.038,-0.056,-0.031,0.014,0.009,-0.006,0.016,0.009,-0.002,0.000,
2.904,-0.069,-0.045,-0.040,0.014,0.008,-0.006,0.015,0.012,0.002,0.000,
2.906,-0.085,-0.029,-0.046,0.014,0.008,-0.006,0.013,0.013,0.005,0.000,
2.908,-0.092,-0.016,-0.047,0.014,0.008,-0.007,0.009,0.011,0.006,0.000,
2.910,-0.095,-0.007,-0.044,0.013,0.008,-0.007,0.005,0.008,0.007,0.000,
2.912,-0.099,-0.003,-0.036,0.013,0.008,-0.007,-0.000,0.003,0.008,0.000,
2.914,-0.103,-0.007,-0.026,0.013,0.008,-0.007,-0.005,-0.000,0.009,0.000,
2.916,-0.104,-0.017,-0.016,0.013,0.008,-0.007,-0.008,-0.004,0.010,0.000,
2.918,-0.101,-0.029,-0.009,0.013,0.008,-0.007,-0.008,-0.007,0.011,0.000,
2.922,-0.091,-0.038,-0.006,0.012,0.008,-0.007,-0.007,-0.010,0.013,0.000,
2.924,-0.064,-0.046,-0.007,0.012,0.008,-0.007,-0.003,-0.012,0.013,0.000,
2.926,-0.032,-0.050,-0.009,0.012,0.008,-0.007,0.001,-0.012,0.014,0.000,
2.928,-0.000,-0.048,-0.008,0.012,0.008,-0.007,0.005,-0.010,0.013,0.000,
2.930,0.026,-0.040,-0.002,0.012,0.008,-0.007,0.008,-0.007,0.011,0.000,
2.932,0.046,-0.023,0.006,0.012,0.008,-0.007,0.008,-0.004,0.008,0.000,
2.934,0.059,-0.003,0.011,0.012,0.008,-0.007,0.007,-0.000,0.005,0.000,
2.936,0.066,0.016,0.011,0.012,0.008,-0.007,0.006,0.003,0.003,0.000,
2.938,0.066,0.031,0.009,0.012,0.008,-0.007,0.004,0.005,0.002,0.000,
2.940,0.058,0.040,0.007,0.013,0.008,-0.007,0.003,0.005,-0.000,0.000,
2.942,0.045,0.043,0.007,0.013,0.008,-0.007,0.003,0.005,-0.003,0.000,
2.944,0.028,0.040,0.010,0.013,0.008,-0.007,0.004,0.004,-0.006,0.000,
2.949,0.006,0.029,0.014,0.013,0.008,-0.007,0.004,0.004,-0.008,0.000,
2.951,-0.036,0.005,0.017,0.013,0.008,-0.007,0.006,0.003,-0.010,0.000,
2.953,-0.081,-0.016,0.018,0.013,0.008,-0.007,0.007,0.001,-0.011,0.000,
2.955,-0.117,-0.027,0.017,0.013,0.008,-0.007,0.008,-0.000,-0.011,0.000,
2.957,-0.136,-0.029,0.015,0.012,0.008,-0.007,0.009,-0.001,-0.011,0.000,
2.959,-0.139,-0.021,0.013,0.012,0.008,-0.007,0.010,-0.002,-0.010,0.000,
2.961,-0.130,-0.008,0.009,0.012,0.008,-0.007,0.010,-0.003,-0.009,0.000,
2.963,-0.112,0.007,0.001,0.012,0.008,-0.007,0.010,-0.003,-0.008,0.000,
2.965,-0.087,0.019,-0.011,0.011,0.008,-0.007,0.007,-0.004,-0.007,0.000,
2.967,-0.058,0.028,-0.023,0.011,0.008,-0.007,0.003,-0.005,-0.007,0.000,
2.969,-0.028,0.033,-0.032,0.011,0.008,-0.007,-0.003,-0.004,-0.007,0.000,
2.971,-0.003,0.034,-0.036,0.011,0.008,-0.007,-0.008,-0.004,-0.009,0.000,
2.975,0.015,0.031,-0.035,0.011,0.008,-0.007,-0.012,-0.003,-0.009,0.000,
2.977,0.022,0.023,-0.028,0.011,0.008,-0.007,-0.012,-0.002,-0.009,0.000,
2.979,0.021,0.010,-0.018,0.011,0.008,-0.007,-0.010,-0.001,-0.008,0.000,
2.981,0.014,-0.002,-0.006,0.011,0.008,-0.007,-0.006,0.000,-0.006,0.000,
2.983,0.007,-0.014,0.004,0.011,0.008,-0.007,-0.002,0.001,-0.004,0.000,
2.985,0.001,-0.022,0.011,0.011,0.008,-0.007,0.001,0.001,-0.002,0.000,
2.987,0.001,-0.024,0.013,0.011,0.008,-0.007,0.002,0.001,-0.000,0.000,
2.989,0.007,-0.019,0.012,0.011,0.008,-0.007,0.001,-0.000,0.001,0.000,
2.991,0.015,-0.008,0.012,0.011,0.008,-0.007,-0.000,-0.001,0.002,0.000,
2.993,0.022,0.005,0.014,0.011,0.008,-0.007,-0.002,-0.001,0.004,0.000,
2.995,0.027,0.017,0.015,0.011,0.008,-0.007,-0.004,-0.001,0.005,0.000,
3.000,0.028,0.024,0.015,0.011,0.008,-0.007,-0.006,-0.000,0.006,0.000,
3.002,0.023,0.022,0.010,0.011,0.008,-0.007,-0.008,0.001,0.005,0.000,
3.004,0.014,0.013,0.006,0.011,0.008,-0.007,-0.010,0.003,0.003,0.000,
3.006,0.004,-0.001,0.006,0.011,0.008,-0.007,-0.012,0.004,-0.000,0.000,
3.008,-0.005,-0.020,0.007,0.011,0.008,-0.007,-0.014,0.003,-0.002,0.000,
3.010,-0.009,-0.041,0.009,0.011,0.008,-0.007,-0.014,0.000,-0.002,0.000,
3.012,-0.008,-0.058,0.010,0.011,0.008,-0.007,-0.014,-0.004,-0.002,0.000,
3.014,-0.003,-0.064,0.009,0.011,0.008,-0.007,-0.013,-0.009,-0.002,0.000,
3.016,0.005,-0.059,0.007,0.011,0.008,-0.007,-0.011,-0.013,-0.001,0.000,
3.018,0.013,-0.043,0.002,0.011,0.008,-0.007,-0.008,-0.016,-0.001,0.000,
3.020,0.022,-0.022,-0.004,0.011,0.008,-0.007,-0.005,-0.017,-0.001,0.000,
3.022,0.031,-0.000,-0.007,0.011,0.008,-0.007,-0.002,-0.016,-0.000,0.000,
3.026,0.039,0.020,-0.006,0.012,0.008,-0.007,-0.000,-0.014,0.001,0.000,
3.028,0.048,0.035,-0.004,0.012,0.008,-0.007,0.000,-0.011,0.002,0.000,
3.030,0.054,0.039,-0.001,0.012,0.008,-0.007,-0.001,-0.006,0.002,0.000,
3.032,0.055,0.030,-0.000,0.012,0.008,-0.007,-0.003,-0.000,0.002,0.000,
3.034,0.048,0.012,0.001,0.012,0.008,-0.007,-0.006,0.006,0.001,0.000,
3.036,0.034,-0.009,0.003,0.012,0.008,-0.007,-0.008,0.011,-0.002,0.000,
3.038,0.017,-0.027,0.004,0.012,0.008,-0.007,-0.009,0.014,-0.004,0.000,
3.040,-0.002,-0.039,0.006,0.012,0.008,-0.007,-0.009,0.017,-0.007,0.000,
3.042,-0.021,-0.045,0.008,0.012,0.008,-0.007,-0.008,0.017,-0.010,0.000,
3.044,-0.038,-0.044,0.007,0.012,0.008,-0.007,-0.006,0.016,-0.013,0.000,
3.046,-0.055,-0.036,0.002,0.012,0.008,-0.007,-0.004,0.013,-0.016,0.000,
3.048,-0.070,-0.025,-0.006,0.012,0.008,-0.007,-0.003,0.011,-0.016,0.000,
3.053,-0.081,-0.012,-0.014,0.012,0.007,-0.007,-0.003,0.008,-0.016,0.000,
3.055,-0.087,0.003,-0.016,0.012,0.007,-0.007,-0.004,0.008,-0.014,0.000,
3.057,-0.089,0.011,-0.011,0.011,0.007,-0.007,-0.006,0.009,-0.013,0.000,
3.059,-0.093,0.011,-0.002,0.011,0.007,-0.007,-0.007,0.011,-0.013,0.000,
3.061,-0.103,0.001,0.007,0.011,0.007,-0.007,-0.008,0.013,-0.015,0.000,
3.063,-0.122,-0.014,0.013,0.011,0.007,-0.007,-0.007,0.015,-0.016,0.000,
3.065,-0.148,-0.035,0.017,0.011,0.007,-0.007,-0.005,0.016,-0.017,0.000,
3.067,-0.179,-0.061,0.019,0.010,0.007,-0.007,-0.003,0.017,-0.016,0.000,
3.069,-0.217,-0.091,0.020,0.010,0.007,-0.007,0.001,0.018,-0.014,0.000,
3.071,-0.256,-0.123,0.023,0.009,0.007,-0.007,0.005,0.016,-0.010,0.000,
3.073,-0.295,-0.150,0.027,0.009,0.007,-0.007,0.010,0.013,-0.006,0.000,
3.077,-0.329,-0.168,0.030,0.008,0.007,-0.007,0.015,0.008,-0.002,0.000,
3.079,-0.363,-0.176,0.029,0.008,0.006,-0.006,0.019,0.000,0.001,0.000,
3.081,-0.387,-0.172,0.020,0.007,0.006,-0.006,0.023,-0.008,0.004,0.000,
3.083,-0.396,-0.160,0.008,0.006,0.006,-0.006,0.026,-0.014,0.007,0.000,
3.085,-0.391,-0.139,-0.004,0.005,0.005,-0.006,0.028,-0.017,0.010,0.000,
3.087,-0.377,-0.111,-0.010,0.005,0.005,-0.006,0.029,-0.019,0.013,0.000,
3.089,-0.360,-0.078,-0.011,0.004,0.005,-0.006,0.030,-0.020,0.016,0.000,
3.091,-0.342,-0.046,-0.009,0.003,0.005,-0.006,0.031,-0.021,0.018,0.000,
3.093,-0.318,-0.018,-0.005,0.003,0.004,-0.006,0.031,-0.023,0.020,0.000,
3.095,-0.287,0.005,-0.003,0.002,0.004,-0.006,0.031,-0.026,0.022,0.000,
3.097,-0.242,0.025,-0.003,0.001,0.004,-0.006,0.030,-0.030,0.022,0.000,
3.099,-0.182,0.045,-0.002,0.001,0.004,-0.006,0.028,-0.034,0.021,0.000,
3.104,-0.108,0.068,-0.000,0.000,0.005,-0.006,0.023,-0.036,0.019,0.000,
3.106,0.005,0.101,0.001,0.000,0.005,-0.006,0.015,-0.035,0.014,0.000,
3.108,0.123,0.136,0.000,0.000,0.005,-0.006,0.006,-0.031,0.010,0.000,
3.110,0.226,0.161,-0.001,0.000,0.005,-0.006,-0.001,-0.025,0.006,0.000,
3.112,0.307,0.169,-0.001,0.001,0.005,-0.006,-0.006,-0.018,0.003,0.000,
3.114,0.365,0.163,-0.000,0.002,0.006,-0.006,-0.009,-0.010,0.001,0.000,
3.116,0.399,0.144,0.003,0.002,0.006,-0.006,-0.011,-0.003,-0.002,0.000,
3.118,0.411,0.116,0.009,0.003,0.006,-0.006,-0.012,0.005,-0.005,0.000,
3.120,0.404,0.085,0.015,0.004,0.007,-0.006,-0.011,0.013,-0.008,0.000,
3.122,0.380,0.051,0.021,0.005,0.007,-0.006,-0.010,0.021,-0.011,0.000,
3.124,0.339,0.016,0.029,0.005,0.007,-0.006,-0.008,0.029,-0.013,0.000,
3.126,0.279,-0.018,0.038,0.006,0.007,-0.006,-0.007,0.034,-0.015,0.000,
3.130,0.202,-0.050,0.047,0.007,0.007,-0.006,-0.006,0.038,-0.016,0.000,
3.132,0.081,-0.081,0.048,0.007,0.007,-0.006,-0.001,0.040,-0.015,0.000,
3.134,-0.058,-0.103,0.039,0.007,0.007,-0.006,0.006,0.038,-0.013,0.000,
3.136,-0.176,-0.110,0.023,0.007,0.006,-0.006,0.014,0.034,-0.010,0.000,
3.138,-0.257,-0.104,0.005,0.007,0.006,-0.006,0.020,0.028,-0.008,0.000,
3.140,-0.304,-0.090,-0.011,0.006,0.006,-0.006,0.025,0.021,-0.005,0.000,
3.142,-0.327,-0.072,-0.020,0.006,0.006,-0.006,0.026,0.015,-0.002,0.000,
3.144,-0.336,-0.055,-0.024,0.005,0.006,-0.006,0.026,0.009,0.001,0.000,
3.146,-0.338,-0.043,-0.023,0.004,0.006,-0.006,0.023,0.004,0.003,0.000,
3.148,-0.338,-0.038,-0.019,0.004,0.006,-0.006,0.020,0.000,0.004,0.000,
3.150,-0.334,-0.038,-0.012,0.003,0.005,-0.006,0.017,-0.003,0.005,0.000,
3.155,-0.327,-0.039,-0.004,0.002,0.005,-0.006,0.015,-0.006,0.006,0.000,
3.157,-0.301,-0.033,0.009,0.002,0.005,-0.006,0.015,-0.012,0.007,0.000,
3.159,-0.255,-0.023,0.020,0.001,0.005,-0.006,0.014,-0.017,0.008,0.000,
3.161,-0.196,-0.008,0.025,0.001,0.005,-0.006,0.014,-0.022,0.009,0.000,
3.163,-0.129,0.010,0.023,0.000,0.005,-0.006,0.013,-0.024,0.008,0.000,
3.165,-0.061,0.033,0.018,-0.000,0.005,-0.006,0.012,-0.023,0.007,0.000,
3.167,0.005,0.059,0.013,-0.000,0.005,-0.006,0.011,-0.021,0.005,0.000,
3.169,0.065,0.088,0.011,-0.000,0.005,-0.006,0.009,-0.019,0.003,0.000,
3.171,0.118,0.114,0.010,-0.000,0.006,-0.006,0.005,-0.017,0.001,0.000,
3.173,0.161,0.131,0.009,0.000,0.006,-0.006,-0.000,-0.014,0.000,0.000,
3.175,0.196,0.137,0.009,0.000,0.006,-0.006,-0.006,-0.011,-0.000,0.000,
3.177,0.223,0.130,0.010,0.001,0.006,-0.006,-0.013,-0.008,-0.000,0.000,
3.182,0.240,0.112,0.015,0.001,0.007,-0.006,-0.018,-0.004,0.000,0.000,
3.184,0.233,0.068,0.026,0.002,0.007,-0.006,-0.022,0.002,-0.001,0.000,
3.186,0.200,0.013,0.036,0.002,0.007,-0.006,-0.022,0.008,-0.003,0.000,
3.188,0.150,-0.039,0.046,0.003,0.007,-0.006,-0.021,0.013,-0.005,0.000,
3.190,0.090,-0.081,0.053,0.003,0.007,-0.006,-0.018,0.015,-0.006,0.000,
3.192,0.026,-0.113,0.056,0.003,0.007,-0.005,-0.015,0.016,-0.007,0.000,
3.194,-0.040,-0.137,0.053,0.003,0.006,-0.005,-0.011,0.016,-0.008,0.000,
3.196,-0.103,-0.156,0.046,0.003,0.006,-0.005,-0.007,0.017,-0.009,0.000,
3.198,-0.166,-0.169,0.038,0.003,0.006,-0.005,-0.003,0.018,-0.008,0.000,
3.200,-0.227,-0.179,0.028,0.003,0.006,-0.005,0.000,0.018,-0.007,0.000,
3.202,-0.287,-0.184,0.016,0.002,0.005,-0.005,0.003,0.018,-0.005,0.000,
3.207,-0.344,-0.187,-0.000,0.002,0.005,-0.005,0.005,0.016,-0.002,0.000,
3.209,-0.409,-0.178,-0.027,0.001,0.004,-0.005,0.008,0.009,0.004,0.000,
3.211,-0.458,-0.159,-0.051,0.000,0.004,-0.005,0.009,-0.001,0.011,0.000,
3.213,-0.479,-0.133,-0.066,-0.001,0.004,-0.005,0.010,-0.011,0.017,0.000,
3.215,-0.469,-0.105,-0.071,-0.002,0.004,-0.005,0.011,-0.020,0.022,0.000,
3.217,-0.429,-0.080,-0.067,-0.003,0.003,-0.005,0.010,-0.028,0.025,0.000,
3.219,-0.367,-0.057,-0.059,-0.004,0.003,-0.006,0.008,-0.035,0.026,0.000,
3.221,-0.289,-0.034,-0.049,-0.004,0.003,-0.006,0.006,-0.040,0.026,0.000,
3.223,-0.202,-0.011,-0.042,-0.005,0.003,-0.006,0.004,-0.044,0.025,0.000,
3.225,-0.110,0.011,-0.037,-0.005,0.003,-0.006,0.002,-0.047,0.024,0.000,
3.227,-0.019,0.033,-0.031,-0.006,0.003,-0.006,0.002,-0.047,0.023,0.000,
3.229,0.069,0.051,-0.026,-0.006,0.003,-0.006,0.002,-0.046,0.021,0.000,
3.234,0.153,0.064,-0.022,-0.005,0.003,-0.006,0.003,-0.041,0.019,0.000,
3.236,0.254,0.068,-0.019,-0.005,0.003,-0.006,0.000,-0.029,0.015,0.000,
3.238,0.333,0.061,-0.017,-0.005,0.003,-0.006,-0.003,-0.015,0.010,0.000,
3.240,0.370,0.046,-0.014,-0.004,0.004,-0.006,-0.005,-0.001,0.004,0.000,
3.242,0.362,0.025,-0.011,-0.003,0.004,-0.006,-0.006,0.010,-0.001,0.000,
3.244,0.318,0.003,-0.010,-0.003,0.004,-0.006,-0.006,0.018,-0.006,0.000,
3.246,0.248,-0.016,-0.009,-0.002,0.004,-0.006,-0.005,0.023,-0.010,0.000,
3.248,0.163,-0.031,-0.008,-0.001,0.004,-0.006,-0.002,0.027,-0.013,0.000,
3.250,0.072,-0.041,-0.007,-0.001,0.004,-0.006,0.001,0.028,-0.015,0.000,
3.252,-0.017,-0.049,-0.005,-0.001,0.004,-0.006,0.004,0.027,-0.015,0.000,
3.254,-0.099,-0.054,-0.001,-0.001,0.003,-0.006,0.007,0.024,-0.014,0.000,
3.256,-0.174,-0.057,0.004,-0.001,0.003,-0.006,0.010,0.020,-0.013,0.000,
3.260,-0.240,-0.058,0.007,-0.001,0.003,-0.006,0.011,0.015,-0.011,0.000,
3.262,-0.307,-0.059,0.004,-0.002,0.003,-0.006,0.012,0.009,-0.008,0.000,
3.264,-0.355,-0.060,-0.004,-0.003,0.003,-0.006,0.010,0.002,-0.004,0.000,
3.266,-0.376,-0.064,-0.014,-0.003,0.003,-0.006,0.008,-0.003,-0.001,0.000,
3.268,-0.374,-0.071,-0.024,-0.004,0.003,-0.006,0.007,-0.008,0.003,0.000,
3.270,-0.356,-0.080,-0.033,-0.005,0.003,-0.006,0.006,-0.011,0.005,0.000,
3.272,-0.328,-0.089,-0.038,-0.006,0.002,-0.006,0.006,-0.015,0.007,0.000,
3.274,-0.293,-0.097,-0.038,-0.006,0.002,-0.006,0.007,-0.018,0.007,0.000,
3.276,-0.253,-0.104,-0.035,-0.007,0.002,-0.007,0.007,-0.021,0.006,0.000,
3.278,-0.203,-0.104,-0.029,-0.007,0.002,-0.007,0.007,-0.023,0.004,0.000,
3.280,-0.143,-0.098,-0.024,-0.008,0.002,-0.007,0.007,-0.025,0.002,0.000,
3.285,-0.075,-0.083,-0.020,-0.008,0.001,-0.007,0.007,-0.024,0.002,0.000,
3.287,0.029,-0.047,-0.020,-0.008,0.001,-0.007,0.006,-0.020,0.003,0.000,
3.289,0.128,-0.004,-0.023,-0.008,0.001,-0.007,0.005,-0.014,0.004,0.000,
3.291,0.197,0.032,-0.028,-0.008,0.001,-0.007,0.002,-0.007,0.005,0.000,
3.293,0.234,0.052,-0.031,-0.007,0.001,-0.007,0.000,-0.001,0.006,0.000,
3.295,0.243,0.055,-0.030,-0.007,0.001,-0.007,-0.002,0.003,0.008,0.000,
3.297,0.234,0.047,-0.024,-0.006,0.001,-0.007,-0.005,0.006,0.009,0.000,
3.299,0.214,0.028,-0.016,-0.006,0.002,-0.007,-0.007,0.008,0.007,0.000,
3.301,0.184,0.001,-0.009,-0.006,0.002,-0.007,-0.009,0.010,0.005,0.000,
3.303,0.146,-0.032,-0.002,-0.005,0.002,-0.007,-0.010,0.013,0.000,0.000,
3.305,0.100,-0.065,0.005,-0.005,0.002,-0.007,-0.010,0.015,-0.004,0.000,
3.307,0.047,-0.094,0.012,-0.005,0.001,-0.007,-0.009,0.017,-0.007,0.000,
3.311,-0.010,-0.115,0.016,-0.005,0.001,-0.007,-0.006,0.018,-0.009,0.000,
3.313,-0.084,-0.124,0.014,-0.005,0.001,-0.007,-0.002,0.017,-0.008,0.000,
3.315,-0.151,-0.125,0.007,-0.005,0.001,-0.007,0.002,0.015,-0.006,0.000,
3.317,-0.196,-0.120,-0.002,-0.005,0.000,-0.007,0.005,0.012,-0.002,0.000,
3.319,-0.216,-0.113,-0.014,-0.005,0.000,-0.007,0.006,0.007,0.002,0.000,
3.321,-0.215,-0.107,-0.027,-0.006,-0.000,-0.007,0.006,0.003,0.005,0.000,
3.323,-0.201,-0.102,-0.036,-0.006,-0.000,-0.007,0.004,-0.001,0.007,0.000,
3.325,-0.180,-0.100,-0.041,-0.007,-0.000,-0.007,0.003,-0.004,0.009,0.000,
3.327,-0.157,-0.102,-0.041,-0.007,-0.001,-0.007,0.003,-0.007,0.010,0.000,
3.329,-0.134,-0.106,-0.038,-0.007,-0.001,-0.007,0.005,-0.010,0.010,0.000,
3.331,-0.113,-0.107,-0.032,-0.008,-0.001,-0.007,0.008,-0.013,0.010,0.000,
3.333,-0.093,-0.102,-0.026,-0.008,-0.001,-0.007,0.013,-0.018,0.009,0.000,
3.338,-0.067,-0.088,-0.017,-0.008,-0.001,-0.008,0.017,-0.023,0.006,0.000,
3.340,-0.025,-0.057,-0.006,-0.008,-0.002,-0.008,0.018,-0.030,0.004,0.000,
3.342,0.021,-0.021,0.004,-0.008,-0.002,-0.008,0.017,-0.035,0.003,0.000,
3.344,0.066,0.007,0.009,-0.008,-0.002,-0.008,0.015,-0.036,0.002,0.000,
3.346,0.108,0.025,0.010,-0.008,-0.002,-0.008,0.012,-0.035,0.003,0.000,
3.348,0.145,0.035,0.008,-0.008,-0.002,-0.008,0.009,-0.030,0.004,0.000,
3.350,0.178,0.039,0.006,-0.008,-0.002,-0.008,0.007,-0.025,0.003,0.000,
3.352,0.202,0.040,0.005,-0.007,-0.002,-0.008,0.007,-0.018,0.002,0.000,
3.354,0.214,0.037,0.004,-0.007,-0.001,-0.008,0.007,-0.011,-0.000,0.000,
3.356,0.212,0.032,0.005,-0.006,-0.001,-0.007,0.007,-0.004,-0.002,0.000,
3.358,0.199,0.024,0.007,-0.006,-0.001,-0.007,0.004,0.003,-0.003,0.000,
3.362,0.177,0.014,0.009,-0.006,-0.001,-0.007,0.000,0.008,-0.005,0.000,
3.364,0.137,-0.004,0.016,-0.005,-0.001,-0.007,-0.003,0.013,-0.010,0.000,
3.366,0.091,-0.021,0.023,-0.005,-0.001,-0.007,-0.005,0.015,-0.016,0.000,
3.368,0.048,-0.034,0.028,-0.005,-0.001,-0.007,-0.005,0.012,-0.021,0.000,
3.370,0.012,-0.044,0.029,-0.005,-0.001,-0.007,-0.002,0.007,-0.022,0.000,
3.372,-0.016,-0.051,0.025,-0.005,-0.001,-0.007,0.002,0.003,-0.020,0.000,
3.374,-0.036,-0.053,0.019,-0.005,-0.002,-0.007,0.005,-0.001,-0.016,0.000,
3.376,-0.051,-0.053,0.012,-0.005,-0.002,-0.007,0.008,-0.004,-0.011,0.000,
3.378,-0.061,-0.051,0.005,-0.005,-0.002,-0.007,0.010,-0.006,-0.007,0.000,
3.380,-0.070,-0.050,-0.001,-0.005,-0.002,-0.007,0.013,-0.008,-0.003,0.000,
3.382,-0.085,-0.047,-0.006,-0.005,-0.002,-0.007,0.015,-0.009,-0.000,0.000,
3.384,-0.103,-0.042,-0.011,-0.005,-0.002,-0.007,0.016,-0.009,0.002,0.000,
3.389,-0.120,-0.036,-0.016,-0.005,-0.002,-0.007,0.017,-0.010,0.003,0.000,
3.391,-0.135,-0.026,-0.022,-0.006,-0.002,-0.007,0.015,-0.013,0.004,0.000,
3.393,-0.143,-0.014,-0.025,-0.006,-0.002,-0.007,0.013,-0.016,0.005,0.000,
3.395,-0.140,-0.004,-0.023,-0.006,-0.002,-0.007,0.010,-0.019,0.005,0.000,
3.397,-0.124,0.005,-0.017,-0.007,-0.002,-0.007,0.009,-0.020,0.007,0.000,
3.399,-0.096,0.011,-0.011,-0.007,-0.002,-0.007,0.008,-0.021,0.009,0.000,
3.401,-0.058,0.020,-0.010,-0.007,-0.002,-0.007,0.009,-0.020,0.010,0.000,
3.403,-0.013,0.031,-0.013,-0.007,-0.002,-0.007,0.010,-0.017,0.010,0.000,
3.405,0.034,0.047,-0.019,-0.007,-0.002,-0.007,0.011,-0.015,0.008,0.000,
3.407,0.079,0.067,-0.023,-0.007,-0.002,-0.007,0.011,-0.012,0.004,0.000,
3.409,0.118,0.085,-0.025,-0.007,-0.002,-0.008,0.010,-0.009,0.000,0.000,
3.411,0.146,0.098,-0.026,-0.007,-0.002,-0.008,0.008,-0.006,-0.004,0.000,
3.415,0.164,0.101,-0.025,-0.006,-0.002,-0.008,0.004,-0.002,-0.009,0.000,
3.417,0.165,0.090,-0.023,-0.006,-0.001,-0.008,-0.001,0.003,-0.014,0.000,
3.419,0.146,0.068,-0.017,-0.006,-0.001,-0.008,-0.008,0.007,-0.019,0.000,
3.421,0.113,0.041,-0.008,-0.005,-0.001,-0.008,-0.013,0.010,-0.022,0.000,
3.423,0.071,0.014,0.003,-0.005,-0.001,-0.008,-0.016,0.010,-0.023,0.000,
3.425,0.026,-0.008,0.015,-0.005,-0.001,-0.008,-0.016,0.009,-0.021,0.000,
3.427,-0.018,-0.024,0.024,-0.005,-0.001,-0.008,-0.014,0.007,-0.019,0.000,
3.429,-0.060,-0.036,0.029,-0.005,-0.001,-0.008,-0.011,0.006,-0.016,0.000,
3.431,-0.098,-0.042,0.030,-0.005,-0.001,-0.008,-0.008,0.005,-0.013,0.000,
3.433,-0.130,-0.041,0.028,-0.005,-0.001,-0.008,-0.006,0.004,-0.012,0.000,
3.435,-0.156,-0.033,0.023,-0.006,-0.001,-0.008,-0.005,0.002,-0.011,0.000,
3.440,-0.174,-0.024,0.018,-0.006,-0.001,-0.007,-0.005,0.001,-0.008,0.000,
3.442,-0.182,-0.020,0.010,-0.006,-0.001,-0.007,-0.005,-0.002,-0.003,0.000,
3.444,-0.178,-0.023,0.001,-0.007,-0.001,-0.007,-0.004,-0.004,0.004,0.000,
3.446,-0.165,-0.031,-0.006,-0.007,-0.001,-0.007,-0.003,-0.007,0.010,0.000,
3.448,-0.144,-0.039,-0.011,-0.007,-0.002,-0.007,-0.001,-0.009,0.014,0.000,
3.450,-0.120,-0.045,-0.013,-0.008,-0.002,-0.007,0.001,-0.012,0.015,0.000,
3.452,-0.096,-0.044,-0.017,-0.008,-0.002,-0.007,0.004,-0.014,0.014,0.000,
3.454,-0.070,-0.037,-0.024,-0.008,-0.002,-0.008,0.007,-0.018,0.013,0.000,
3.456,-0.042,-0.026,-0.032,-0.008,-0.002,-0.008,0.009,-0.022,0.012,0.000,
3.458,-0.012,-0.011,-0.040,-0.008,-0.002,-0.008,0.011,-0.026,0.012,0.000,
3.460,0.018,0.006,-0.045,-0.008,-0.002,-0.008,0.013,-0.029,0.012,0.000,
3.462,0.049,0.021,-0.048,-0.008,-0.002,-0.008,0.015,-0.031,0.012,0.000,
3.466,0.081,0.031,-0.050,-0.008,-0.002,-0.008,0.015,-0.031,0.012,0.000,
3.468,0.121,0.035,-0.050,-0.008,-0.002,-0.008,0.011,-0.029,0.009,0.000,
3.470,0.159,0.031,-0.043,-0.008,-0.002,-0.008,0.004,-0.023,0.005,0.000,
3.472,0.183,0.025,-0.033,-0.007,-0.002,-0.008,-0.003,-0.017,0.001,0.000,
3.474,0.192,0.020,-0.021,-0.007,-0.002,-0.008,-0.009,-0.011,-0.002,0.000,
3.476,0.189,0.016,-0.010,-0.007,-0.002,-0.008,-0.014,-0.006,-0.004,0.000,
3.478,0.175,0.013,0.002,-0.006,-0.002,-0.008,-0.016,-0.003,-0.007,0.000,
3.480,0.153,0.010,0.013,-0.006,-0.002,-0.008,-0.016,0.000,-0.009,0.000,
3.482,0.126,0.005,0.024,-0.006,-0.002,-0.008,-0.014,0.003,-0.013,0.000,
3.484,0.097,-0.001,0.035,-0.005,-0.002,-0.008,-0.011,0.006,-0.016,0.000,
3.486,0.068,-0.008,0.043,-0.005,-0.002,-0.008,-0.007,0.009,-0.017,0.000,
3.491,0.037,-0.018,0.047,-0.005,-0.002,-0.008,-0.003,0.012,-0.018,0.000,
3.493,-0.007,-0.033,0.043,-0.005,-0.002,-0.008,0.001,0.014,-0.017,0.000,
3.495,-0.050,-0.047,0.034,-0.005,-0.002,-0.008,0.003,0.015,-0.014,0.000,
3.497,-0.085,-0.058,0.023,-0.005,-0.002,-0.008,0.004,0.015,-0.012,0.000,
3.499,-0.110,-0.063,0.008,-0.005,-0.002,-0.008,0.005,0.014,-0.010,0.000,
3.501,-0.128,-0.063,-0.006,-0.006,-0.002,-0.008,0.005,0.012,-0.008,0.000,
3.503,-0.140,-0.056,-0.017,-0.006,-0.002,-0.008,0.006,0.010,-0.009,0.000,
3.505,-0.147,-0.046,-0.021,-0.006,-0.002,-0.008,0.008,0.007,-0.010,0.000,
3.507,-0.150,-0.036,-0.017,-0.006,-0.002,-0.008,0.010,0.003,-0.011,0.000,
3.509,-0.148,-0.031,-0.008,-0.007,-0.002,-0.008,0.011,-0.003,-0.012,0.000,
3.511,-0.143,-0.031,0.002,-0.007,-0.002,-0.008,0.013,-0.010,-0.012,0.000,
3.513,-0.128,-0.034,0.009,-0.007,-0.003,-0.008,0.013,-0.017,-0.010,0.000,
3.517,-0.103,-0.035,0.011,-0.007,-0.003,-0.008,0.014,-0.024,-0.008,0.000,
3.519,-0.044,-0.022,0.008,-0.008,-0.003,-0.008,0.014,-0.032,-0.008,0.000,
3.521,0.028,-0.004,0.002,-0.008,-0.003,-0.008,0.012,-0.037,-0.008,0.000,
3.523,0.094,0.013,-0.003,-0.008,-0.003,-0.008,0.009,-0.037,-0.010,0.000,
3.525,0.145,0.027,-0.005,-0.008,-0.003,-0.008,0.005,-0.034,-0.012,0.000,
3.527,0.180,0.034,-0.004,-0.007,-0.003,-0.008,0.001,-0.029,-0.014,0.000,
3.529,0.200,0.038,-0.001,-0.007,-0.003,-0.008,-0.002,-0.024,-0.017,0.000,
3.531,0.207,0.037,0.005,-0.006,-0.002,-0.008,-0.004,-0.019,-0.019,0.000,
3.533,0.198,0.031,0.010,-0.006,-0.002,-0.008,-0.003,-0.014,-0.020,0.000,
3.535,0.172,0.018,0.014,-0.006,-0.002,-0.008,-0.001,-0.010,-0.020,0.000,
3.537,0.133,0.004,0.020,-0.005,-0.002,-0.008,0.001,-0.006,-0.020,0.000,
3.539,0.087,-0.009,0.028,-0.005,-0.002,-0.008,0.004,-0.001,-0.018,0.000,
3.544,0.037,-0.021,0.037,-0.005,-0.002,-0.008,0.007,0.001,-0.017,0.000,
3.546,-0.026,-0.035,0.046,-0.005,-0.002,-0.008,0.010,0.001,-0.015,0.000,
3.548,-0.083,-0.044,0.053,-0.005,-0.002,-0.008,0.012,-0.002,-0.013,0.000,
3.550,-0.122,-0.046,0.055,-0.005,-0.003,-0.007,0.015,-0.004,-0.010,0.000,
3.552,-0.140,-0.042,0.053,-0.005,-0.003,-0.007,0.017,-0.006,-0.008,0.000,
3.554,-0.141,-0.032,0.045,-0.006,-0.003,-0.007,0.018,-0.006,-0.006,0.000,
3.556,-0.135,-0.020,0.033,-0.006,-0.003,-0.007,0.018,-0.005,-0.004,0.000,
3.558,-0.127,-0.009,0.019,-0.006,-0.003,-0.007,0.017,-0.004,-0.002,0.000,
3.560,-0.120,0.002,0.003,-0.006,-0.003,-0.007,0.014,-0.003,-0.001,0.000,
3.562,-0.116,0.011,-0.013,-0.007,-0.003,-0.007,0.010,-0.003,-0.000,0.000,
3.564,-0.110,0.018,-0.024,-0.007,-0.003,-0.007,0.006,-0.004,-0.000,0.000,
3.569,-0.103,0.019,-0.028,-0.007,-0.003,-0.007,0.002,-0.005,0.001,0.000,
3.571,-0.084,0.010,-0.014,-0.007,-0.003,-0.007,-0.002,-0.009,0.003,0.000,
3.573,-0.058,-0.007,0.009,-0.007,-0.003,-0.007,-0.003,-0.012,0.005,0.000,
3.575,-0.031,-0.026,0.033,-0.008,-0.003,-0.007,-0.002,-0.014,0.006,0.000,
3.577,-0.004,-0.040,0.052,-0.008,-0.003,-0.007,0.002,-0.014,0.007,0.000,
3.579,0.024,-0.043,0.062,-0.008,-0.003,-0.007,0.006,-0.012,0.006,0.000,
3.581,0.051,-0.033,0.066,-0.008,-0.003,-0.007,0.010,-0.010,0.006,0.000,
3.583,0.079,-0.011,0.065,-0.007,-0.003,-0.007,0.012,-0.009,0.004,0.000,
3.585,0.106,0.015,0.059,-0.007,-0.003,-0.007,0.013,-0.008,0.003,0.000,
3.587,0.133,0.040,0.048,-0.007,-0.003,-0.006,0.012,-0.010,0.001,0.000,
3.589,0.159,0.059,0.032,-0.007,-0.003,-0.006,0.009,-0.011,0.000,0.000,
3.591,0.183,0.071,0.016,-0.007,-0.003,-0.006,0.006,-0.010,-0.001,0.000,
3.595,0.197,0.078,0.002,-0.006,-0.003,-0.006,0.002,-0.008,-0.003,0.000,
3.597,0.192,0.079,-0.009,-0.006,-0.002,-0.006,-0.001,-0.003,-0.005,0.000,
3.599,0.170,0.073,-0.015,-0.005,-0.002,-0.006,-0.002,0.003,-0.007,0.000,
3.601,0.138,0.061,-0.017,-0.005,-0.002,-0.006,-0.000,0.007,-0.009,0.000,
3.603,0.104,0.046,-0.018,-0.005,-0.002,-0.006,0.002,0.011,-0.011,0.000,
3.605,0.075,0.031,-0.018,-0.005,-0.002,-0.006,0.003,0.011,-0.014,0.000,
3.607,0.051,0.020,-0.022,-0.004,-0.002,-0.006,0.003,0.009,-0.016,0.000,
3.609,0.029,0.013,-0.030,-0.004,-0.002,-0.006,0.002,0.006,-0.017,0.000,
3.611,0.008,0.007,-0.039,-0.004,-0.002,-0.007,0.001,0.002,-0.016,0.000,
3.613,-0.012,-0.000,-0.045,-0.004,-0.002,-0.007,0.001,-0.001,-0.015,0.000,
3.615,-0.031,-0.008,-0.046,-0.004,-0.002,-0.007,0.002,-0.002,-0.013,0.000,
3.617,-0.048,-0.016,-0.043,-0.004,-0.002,-0.007,0.005,-0.002,-0.010,0.000,
3.622,-0.060,-0.026,-0.037,-0.004,-0.002,-0.007,0.007,-0.001,-0.006,0.000,
3.624,-0.070,-0.036,-0.029,-0.005,-0.002,-0.007,0.010,-0.001,-0.002,0.000,
3.626,-0.076,-0.042,-0.017,-0.005,-0.002,-0.007,0.012,-0.003,0.002,0.000,
3.628,-0.079,-0.041,-0.005,-0.005,-0.002,-0.007,0.013,-0.005,0.004,0.000,
3.630,-0.077,-0.036,0.002,-0.005,-0.002,-0.007,0.014,-0.009,0.004,0.000,
3.632,-0.069,-0.029,0.004,-0.005,-0.002,-0.007,0.014,-0.014,0.003,0.000,
3.634,-0.051,-0.022,-0.000,-0.005,-0.002,-0.007,0.015,-0.019,0.003,0.000,
3.636,-0.027,-0.015,-0.007,-0.005,-0.002,-0.007,0.016,-0.021,0.004,0.000,
3.638,0.003,-0.008,-0.013,-0.005,-0.002,-0.007,0.017,-0.022,0.005,0.000,
3.640,0.039,-0.000,-0.017,-0.005,-0.002,-0.007,0.019,-0.020,0.007,0.000,
3.642,0.078,0.008,-0.017,-0.005,-0.002,-0.007,0.020,-0.016,0.008,0.000,
3.646,0.117,0.016,-0.015,-0.005,-0.002,-0.007,0.021,-0.010,0.007,0.000,
3.648,0.154,0.030,-0.010,-0.005,-0.002,-0.007,0.020,-0.001,0.003,0.000,
3.650,0.178,0.044,-0.007,-0.005,-0.002,-0.007,0.018,0.009,-0.003,0.000,
3.652,0.183,0.053,-0.004,-0.004,-0.002,-0.007,0.014,0.017,-0.008,0.000,
3.654,0.172,0.052,-0.001,-0.004,-0.002,-0.007,0.011,0.022,-0.013,0.000,
3.656,0.149,0.044,0.007,-0.004,-0.002,-0.007,0.007,0.025,-0.015,0.000,
3.658,0.117,0.034,0.016,-0.003,-0.002,-0.007,0.006,0.026,-0.016,0.000,
3.660,0.081,0.021,0.026,-0.003,-0.002,-0.007,0.005,0.024,-0.017,0.000,
3.662,0.042,0.007,0.035,-0.003,-0.002,-0.007,0.006,0.020,-0.018,0.000,
3.664,0.005,-0.009,0.041,-0.003,-0.002,-0.007,0.006,0.015,-0.019,0.000,
3.666,-0.028,-0.024,0.044,-0.003,-0.002,-0.007,0.005,0.010,-0.021,0.000,
3.668,-0.056,-0.035,0.044,-0.003,-0.002,-0.007,0.004,0.005,-0.023,0.000,
3.673,-0.076,-0.043,0.040,-0.003,-0.002,-0.007,0.003,0.001,-0.024,0.000,
3.675,-0.087,-0.047,0.036,-0.003,-0.002,-0.007,0.002,-0.003,-0.023,0.000,
3.677,-0.086,-0.046,0.034,-0.003,-0.002,-0.007,0.001,-0.006,-0.020,0.000,
3.679,-0.075,-0.044,0.031,-0.003,-0.002,-0.007,-0.000,-0.009,-0.016,0.000,
3.681,-0.058,-0.045,0.025,-0.004,-0.002,-0.007,-0.002,-0.011,-0.011,0.000,
3.683,-0.042,-0.048,0.017,-0.004,-0.002,-0.006,-0.004,-0.012,-0.007,0.000,
3.685,-0.029,-0.050,0.010,-0.004,-0.002,-0.006,-0.005,-0.014,-0.005,0.000,
3.687,-0.020,-0.048,0.009,-0.004,-0.003,-0.006,-0.005,-0.015,-0.004,0.000,
3.689,-0.008,-0.043,0.010,-0.004,-0.003,-0.006,-0.003,-0.016,-0.004,0.000,
3.691,0.008,-0.037,0.008,-0.004,-0.003,-0.006,0.000,-0.015,-0.003,0.000,
3.693,0.026,-0.029,0.000,-0.004,-0.003,-0.006,0.004,-0.014,-0.003,0.000,
3.695,0.043,-0.019,-0.013,-0.004,-0.003,-0.006,0.007,-0.011,-0.003,0.000,
3.699,0.055,-0.005,-0.027,-0.004,-0.003,-0.006,0.009,-0.008,-0.003,0.000,
3.701,0.063,0.018,-0.039,-0.004,-0.003,-0.006,0.010,-0.001,-0.001,0.000,
3.703,0.059,0.041,-0.048,-0.004,-0.003,-0.007,0.009,0.006,0.001,0.000,
3.705,0.042,0.060,-0.053,-0.003,-0.003,-0.007,0.008,0.012,0.003,0.000,
3.707,0.012,0.070,-0.053,-0.003,-0.003,-0.007,0.004,0.015,0.003,0.000,
3.709,-0.026,0.074,-0.047,-0.003,-0.003,-0.007,-0.002,0.016,0.002,0.000,
3.711,-0.066,0.072,-0.038,-0.003,-0.002,-0.007,-0.008,0.015,0.001,0.000,
3.713,-0.102,0.063,-0.027,-0.003,-0.002,-0.007,-0.013,0.013,0.001,0.000,
3.715,-0.130,0.045,-0.016,-0.004,-0.002,-0.007,-0.017,0.011,0.002,0.000,
3.717,-0.151,0.023,-0.005,-0.004,-0.002,-0.007,-0.018,0.007,0.005,0.000,
3.719,-0.163,0.001,0.006,-0.004,-0.002,-0.007,-0.016,0.004,0.008,0.000,
3.724,-0.169,-0.017,0.016,-0.005,-0.002,-0.007,-0.012,0.000,0.009,0.000,
3.726,-0.168,-0.033,0.019,-0.005,-0.002,-0.007,-0.005,-0.005,0.008,0.000,
3.728,-0.156,-0.040,0.013,-0.005,-0.002,-0.007,0.000,-0.008,0.006,0.000,
3.730,-0.134,-0.037,-0.000,-0.006,-0.002,-0.007,0.004,-0.011,0.004,0.000,
