time,gyrx,gyry,gyrz,rol,pit,yaw,accx,accy,accz,vCmds
0.002,0.004,-0.003,-0.000,0.000,0.000,0.000,0.179,0.247,-9.665,0.000,
0.005,0.004,0.000,-0.001,0.000,-0.000,-0.000,0.188,0.256,-9.661,0.000,
0.007,0.005,0.002,-0.001,0.000,-0.000,-0.000,0.186,0.264,-9.667,0.000,
0.009,0.005,0.004,-0.001,0.000,0.000,-0.000,0.179,0.269,-9.674,0.000,
0.011,0.005,0.005,-0.001,0.000,0.000,-0.000,0.168,0.276,-9.681,0.000,
0.013,0.005,0.006,-0.002,0.000,0.000,-0.000,0.159,0.293,-9.692,0.000,
0.015,0.005,0.008,-0.003,0.000,0.000,-0.000,0.151,0.315,-9.708,0.000,
0.017,0.005,0.008,-0.003,0.000,0.000,-0.000,0.140,0.325,-9.724,0.000,
0.019,0.003,0.009,-0.002,0.000,0.000,-0.000,0.136,0.331,-9.731,0.000,
0.021,0.003,0.008,-0.002,0.000,0.000,-0.000,0.130,0.339,-9.710,0.000,
0.023,0.002,0.007,-0.001,0.000,0.000,-0.000,0.119,0.343,-9.675,0.000,
0.025,0.002,0.006,-0.001,0.000,0.000,-0.000,0.108,0.349,-9.645,3.000,
0.031,0.002,0.004,0.001,0.000,0.000,-0.000,0.106,0.353,-9.584,0.000,
0.033,0.003,0.005,0.002,0.000,0.000,-0.000,0.106,0.342,-9.559,0.000,
0.035,0.002,0.005,0.003,0.000,0.000,-0.000,0.110,0.342,-9.542,0.000,
0.037,0.002,0.006,0.004,0.000,0.000,-0.000,0.112,0.341,-9.533,0.000,
0.039,0.002,0.007,0.005,0.000,0.000,-0.000,0.114,0.333,-9.534,0.000,
0.041,0.003,0.006,0.004,0.000,0.000,-0.000,0.123,0.318,-9.538,0.000,
0.043,0.003,0.006,0.004,0.000,0.000,0.000,0.131,0.304,-9.557,0.000,
0.045,0.003,0.004,0.003,0.000,0.000,0.000,0.135,0.295,-9.576,0.000,
0.047,0.003,0.002,0.003,0.000,0.000,0.000,0.132,0.288,-9.580,0.000,
0.049,0.004,0.000,0.002,0.000,0.000,0.000,0.122,0.287,-9.586,0.000,
0.051,0.004,-0.000,0.002,0.000,0.000,0.000,0.112,0.295,-9.592,0.000,
0.053,0.005,-0.001,0.001,0.000,0.000,0.000,0.106,0.297,-9.600,0.000,
0.057,0.005,-0.002,0.000,0.000,0.000,0.000,0.085,0.290,-9.618,0.000,
0.059,0.006,-0.002,-0.002,0.000,0.000,0.000,0.068,0.300,-9.621,8.000,
0.061,0.006,-0.002,-0.003,0.000,0.000,0.000,0.052,0.314,-9.626,0.000,
0.063,0.007,-0.003,-0.006,0.000,0.000,0.000,0.043,0.326,-9.634,0.000,
0.065,0.007,-0.003,-0.007,0.000,0.000,0.000,0.039,0.332,-9.632,0.000,
0.067,0.008,-0.005,-0.007,0.000,0.000,0.000,0.041,0.339,-9.627,0.000,
0.069,0.008,-0.005,-0.008,0.000,0.000,-0.000,0.052,0.341,-9.613,0.000,
0.071,0.008,-0.007,-0.006,0.000,0.000,-0.000,0.071,0.339,-9.591,0.000,
0.073,0.008,-0.007,-0.005,0.000,0.000,-0.000,0.098,0.333,-9.577,0.000,
0.075,0.007,-0.009,-0.003,0.000,0.000,-0.000,0.124,0.332,-9.566,0.000,
0.077,0.006,-0.009,-0.002,0.000,0.000,-0.000,0.153,0.336,-9.564,0.000,
0.082,0.002,-0.006,0.001,0.000,0.000,-0.000,0.225,0.339,-9.577,0.000,
0.084,0.001,-0.005,0.002,0.000,0.000,-0.000,0.250,0.339,-9.598,0.000,
0.086,-0.000,-0.003,0.002,0.000,0.000,-0.000,0.266,0.339,-9.622,0.000,
0.088,-0.001,-0.002,0.002,0.000,0.000,-0.000,0.269,0.341,-9.634,0.000,
0.090,-0.001,-0.002,0.002,0.000,0.000,-0.000,0.252,0.337,-9.634,0.000,
0.092,-0.001,-0.002,0.002,0.000,0.000,-0.000,0.227,0.323,-9.632,0.000,
0.094,-0.001,-0.003,0.002,0.000,0.000,-0.000,0.208,0.309,-9.625,4.000,
0.096,-0.001,-0.005,0.001,0.000,0.000,-0.000,0.191,0.298,-9.612,0.000,
0.098,-0.000,-0.005,0.001,0.000,0.000,-0.000,0.175,0.295,-9.599,0.000,
0.100,0.001,-0.005,-0.001,0.000,0.000,-0.000,0.167,0.302,-9.595,0.000,
0.102,0.001,-0.005,-0.002,0.000,0.000,-0.000,0.164,0.304,-9.602,0.000,
0.104,0.002,-0.004,-0.003,0.000,0.000,-0.000,0.157,0.302,-9.611,0.000,
0.112,-0.002,0.001,-0.002,0.000,0.000,-0.000,0.120,0.317,-9.625,0.000,
0.114,-0.002,0.002,-0.001,0.000,0.000,-0.000,0.108,0.319,-9.622,0.000,
0.116,-0.002,0.003,-0.000,0.000,0.000,-0.000,0.100,0.324,-9.625,0.000,
0.118,-0.002,0.004,0.000,0.000,0.000,-0.000,0.096,0.329,-9.638,0.000,
0.120,-0.002,0.006,0.002,0.000,0.000,-0.000,0.100,0.339,-9.641,0.000,
0.122,-0.002,0.007,0.003,0.000,0.000,-0.000,0.110,0.346,-9.632,0.000,
0.124,-0.003,0.008,0.004,0.000,0.000,-0.000,0.128,0.354,-9.624,0.000,
0.126,-0.004,0.008,0.005,0.000,0.000,-0.000,0.149,0.363,-9.621,0.000,
0.128,-0.004,0.007,0.005,0.000,0.000,-0.000,0.170,0.366,-9.624,0.000,
0.130,-0.004,0.007,0.004,0.000,0.000,0.000,0.182,0.362,-9.635,0.000,
0.132,-0.004,0.005,0.003,0.000,0.000,0.000,0.196,0.360,-9.655,0.000,
0.134,-0.004,0.005,0.002,0.000,0.000,0.000,0.213,0.358,-9.674,0.000,
0.155,0.001,-0.009,0.003,0.000,0.000,0.000,0.211,0.352,-9.662,0.000,
0.157,0.001,-0.009,0.002,0.000,0.000,0.000,0.203,0.364,-9.660,0.000,
0.159,0.002,-0.007,0.001,0.000,0.000,0.000,0.204,0.380,-9.662,0.000,
0.161,0.002,-0.007,0.001,0.000,0.000,0.000,0.211,0.395,-9.676,0.000,
0.163,0.002,-0.006,0.000,0.000,0.000,0.000,0.210,0.402,-9.701,0.000,
0.165,0.002,-0.005,0.000,0.000,0.000,0.000,0.204,0.399,-9.725,0.000,
0.167,0.002,-0.004,0.001,0.000,0.000,0.000,0.200,0.392,-9.745,0.000,
0.169,0.001,-0.003,0.001,0.000,0.000,0.000,0.201,0.377,-9.754,0.000,
0.171,0.001,-0.001,0.002,0.000,0.000,0.000,0.200,0.357,-9.755,0.000,
0.173,0.000,-0.000,0.003,0.000,0.000,0.000,0.199,0.334,-9.751,0.000,
0.175,-0.001,0.001,0.004,0.000,0.000,0.000,0.196,0.315,-9.739,0.000,
0.180,-0.001,0.004,0.004,0.000,0.000,0.000,0.195,0.298,-9.736,0.000,
0.182,-0.001,0.005,0.005,0.000,0.000,0.000,0.182,0.292,-9.750,0.000,
0.184,-0.000,0.006,0.006,0.000,0.000,0.000,0.171,0.301,-9.761,0.000,
0.186,-0.000,0.008,0.006,0.000,0.000,0.000,0.164,0.310,-9.766,0.000,
0.188,-0.000,0.008,0.006,0.000,0.000,0.000,0.160,0.313,-9.761,0.000,
0.190,-0.001,0.008,0.006,0.000,0.000,0.000,0.151,0.312,-9.741,0.000,
0.192,-0.002,0.008,0.007,0.000,0.000,0.000,0.148,0.306,-9.721,0.000,
0.194,-0.003,0.007,0.007,0.000,0.000,0.000,0.157,0.313,-9.702,0.000,
0.196,-0.003,0.007,0.007,0.000,0.000,0.000,0.175,0.321,-9.686,0.000,
0.198,-0.003,0.007,0.006,0.000,0.000,0.000,0.193,0.326,-9.674,0.000,
0.200,-0.001,0.006,0.005,0.000,0.000,0.000,0.214,0.332,-9.657,0.000,
0.202,-0.001,0.006,0.004,0.000,0.000,0.000,0.224,0.340,-9.634,0.000,
0.206,0.001,0.008,0.004,0.000,0.000,0.000,0.221,0.355,-9.605,0.000,
0.208,0.002,0.009,0.005,0.000,0.000,0.000,0.221,0.361,-9.602,0.000,
0.210,0.002,0.009,0.005,0.000,0.000,0.000,0.223,0.361,-9.600,0.000,
0.212,0.003,0.010,0.005,0.000,0.000,0.000,0.228,0.358,-9.589,0.000,
0.214,0.003,0.011,0.005,0.000,0.000,0.000,0.236,0.348,-9.568,0.000,
0.216,0.003,0.013,0.004,0.000,0.000,0.000,0.241,0.337,-9.550,0.000,
0.218,0.003,0.015,0.004,0.000,0.000,0.000,0.242,0.328,-9.548,0.000,
0.220,0.003,0.016,0.003,0.000,0.000,0.000,0.239,0.318,-9.559,0.000,
0.222,0.002,0.017,0.003,0.000,0.000,0.000,0.233,0.318,-9.570,0.000,
0.224,0.001,0.018,0.004,0.000,0.001,0.000,0.223,0.320,-9.573,0.000,
0.226,-0.000,0.018,0.005,0.000,0.001,0.000,0.222,0.321,-9.572,0.000,
0.228,-0.002,0.019,0.006,0.000,0.001,0.000,0.222,0.316,-9.568,0.000,
0.233,-0.004,0.019,0.007,0.000,0.001,0.000,0.223,0.292,-9.594,0.000,
0.235,-0.005,0.019,0.007,0.000,0.001,0.000,0.229,0.282,-9.598,0.000,
0.237,-0.006,0.019,0.008,0.000,0.001,0.000,0.224,0.276,-9.598,0.000,
0.239,-0.006,0.020,0.008,0.000,0.001,0.000,0.220,0.274,-9.596,0.000,
0.241,-0.006,0.022,0.009,0.000,0.001,0.000,0.214,0.267,-9.599,0.000,
0.243,-0.005,0.023,0.010,0.000,0.001,0.000,0.211,0.261,-9.612,0.000,
0.245,-0.004,0.024,0.010,0.000,0.001,0.000,0.208,0.252,-9.619,0.000,
0.247,-0.004,0.024,0.010,0.000,0.001,0.000,0.208,0.240,-9.624,0.000,
0.249,-0.004,0.023,0.010,0.000,0.001,0.000,0.201,0.235,-9.625,0.000,
0.251,-0.004,0.023,0.010,0.000,0.001,0.000,0.192,0.246,-9.615,0.000,
0.253,-0.004,0.022,0.009,0.000,0.001,0.000,0.189,0.253,-9.596,0.000,
0.257,-0.004,0.022,0.008,0.000,0.001,0.001,0.192,0.268,-9.546,0.000,
0.259,-0.004,0.019,0.007,0.000,0.001,0.001,0.186,0.275,-9.539,0.000,
0.261,-0.004,0.017,0.006,0.000,0.001,0.001,0.174,0.280,-9.538,0.000,
0.263,-0.005,0.013,0.005,0.000,0.001,0.001,0.168,0.289,-9.541,0.000,
0.265,-0.005,0.012,0.004,0.000,0.001,0.001,0.168,0.296,-9.544,0.000,
0.267,-0.004,0.010,0.004,0.000,0.001,0.001,0.172,0.297,-9.556,0.000,
0.269,-0.004,0.010,0.004,0.000,0.001,0.001,0.180,0.295,-9.571,0.000,
0.271,-0.003,0.010,0.005,0.000,0.001,0.001,0.192,0.301,-9.581,0.000,
0.273,-0.003,0.010,0.006,0.000,0.001,0.001,0.202,0.311,-9.589,0.000,
0.275,-0.003,0.010,0.007,0.000,0.001,0.001,0.213,0.312,-9.598,0.000,
0.277,-0.003,0.009,0.008,0.000,0.001,0.001,0.221,0.312,-9.599,0.000,
0.279,-0.003,0.008,0.008,0.000,0.001,0.001,0.223,0.314,-9.601,0.000,
0.284,-0.002,0.008,0.008,0.000,0.001,0.001,0.215,0.319,-9.592,0.000,
0.286,-0.001,0.008,0.008,0.000,0.001,0.001,0.199,0.318,-9.577,0.000,
0.288,-0.000,0.008,0.009,0.000,0.001,0.001,0.182,0.323,-9.559,0.000,
0.290,0.000,0.008,0.010,0.000,0.001,0.001,0.162,0.339,-9.549,2.000,
0.292,0.001,0.008,0.011,0.000,0.001,0.001,0.145,0.362,-9.545,0.000,
0.294,0.001,0.008,0.012,0.000,0.002,0.001,0.128,0.380,-9.540,0.000,
0.296,-0.000,0.009,0.013,0.000,0.002,0.001,0.116,0.391,-9.535,0.000,
0.298,-0.001,0.009,0.013,0.000,0.002,0.001,0.116,0.395,-9.541,0.000,
0.300,-0.002,0.009,0.013,0.000,0.002,0.001,0.128,0.391,-9.560,0.000,
0.302,-0.002,0.009,0.012,0.000,0.002,0.001,0.145,0.388,-9.588,0.000,
0.304,-0.003,0.009,0.012,0.000,0.002,0.001,0.156,0.386,-9.612,0.000,
0.306,-0.004,0.009,0.012,0.000,0.002,0.001,0.161,0.388,-9.629,0.000,
0.310,-0.004,0.011,0.012,0.000,0.002,0.001,0.171,0.385,-9.635,0.000,
0.312,-0.003,0.011,0.012,0.000,0.002,0.001,0.173,0.375,-9.641,0.000,
0.314,-0.003,0.012,0.012,0.000,0.002,0.001,0.177,0.360,-9.654,0.000,
0.316,-0.002,0.012,0.012,0.000,0.002,0.001,0.180,0.355,-9.659,0.000,
0.318,-0.002,0.012,0.012,0.000,0.002,0.001,0.178,0.353,-9.665,0.000,
0.320,-0.001,0.012,0.012,0.000,0.002,0.001,0.169,0.354,-9.669,0.000,
0.322,-0.000,0.013,0.012,0.000,0.002,0.001,0.151,0.356,-9.676,0.000,
0.324,-0.000,0.013,0.012,0.000,0.002,0.001,0.133,0.354,-9.690,0.000,
0.326,-0.000,0.014,0.012,0.000,0.002,0.001,0.125,0.342,-9.694,0.000,
0.328,0.000,0.014,0.012,0.000,0.002,0.001,0.120,0.327,-9.695,0.000,
0.330,0.001,0.015,0.011,0.000,0.002,0.001,0.113,0.318,-9.695,0.000,
0.335,0.001,0.018,0.011,0.000,0.002,0.001,0.115,0.313,-9.711,0.000,
0.337,0.002,0.022,0.011,0.000,0.002,0.001,0.116,0.318,-9.722,0.000,
0.339,0.002,0.025,0.011,0.000,0.002,0.001,0.116,0.327,-9.734,0.000,
0.341,0.003,0.030,0.010,0.000,0.002,0.001,0.125,0.333,-9.740,0.000,
0.343,0.003,0.033,0.011,0.000,0.002,0.001,0.135,0.332,-9.737,0.000,
0.345,0.002,0.038,0.011,0.000,0.002,0.001,0.145,0.321,-9.727,0.000,
0.347,0.001,0.040,0.012,0.000,0.002,0.001,0.157,0.307,-9.713,0.000,
0.349,-0.001,0.043,0.013,0.000,0.002,0.001,0.161,0.298,-9.706,0.000,
0.351,-0.001,0.044,0.013,0.000,0.002,0.001,0.163,0.295,-9.717,0.000,
0.353,-0.002,0.045,0.013,0.000,0.003,0.001,0.165,0.295,-9.730,0.000,
0.355,-0.001,0.047,0.013,0.000,0.003,0.001,0.170,0.296,-9.743,0.000,
0.357,-0.001,0.047,0.013,0.000,0.003,0.001,0.184,0.290,-9.754,0.000,
0.361,0.000,0.049,0.012,0.000,0.003,0.001,0.213,0.263,-9.737,0.000,
0.363,0.002,0.051,0.011,0.000,0.003,0.002,0.216,0.251,-9.725,0.000,
0.365,0.002,0.052,0.011,0.000,0.003,0.002,0.214,0.248,-9.719,0.000,
0.367,0.003,0.054,0.011,0.000,0.003,0.002,0.210,0.242,-9.708,0.000,
0.369,0.004,0.054,0.011,0.000,0.003,0.002,0.202,0.236,-9.689,2.000,
0.371,0.003,0.056,0.011,0.000,0.003,0.002,0.189,0.247,-9.649,0.000,
0.373,0.003,0.056,0.011,0.000,0.003,0.002,0.172,0.272,-9.611,0.000,
0.375,0.000,0.057,0.012,0.000,0.004,0.002,0.166,0.305,-9.588,0.000,
0.377,-0.002,0.057,0.013,0.000,0.004,0.002,0.170,0.330,-9.578,0.000,
0.379,-0.004,0.057,0.014,0.000,0.004,0.002,0.177,0.343,-9.581,0.000,
0.381,-0.008,0.058,0.017,0.000,0.004,0.002,0.196,0.346,-9.593,0.000,
0.386,-0.016,0.061,0.021,0.000,0.004,0.002,0.231,0.326,-9.598,0.000,
0.388,-0.017,0.062,0.021,0.000,0.004,0.002,0.232,0.311,-9.602,0.000,
0.390,-0.020,0.065,0.021,0.000,0.004,0.002,0.235,0.292,-9.619,0.000,
0.392,-0.022,0.066,0.021,0.000,0.004,0.002,0.244,0.271,-9.640,0.000,
0.394,-0.023,0.068,0.021,0.000,0.005,0.002,0.254,0.256,-9.658,0.000,
0.396,-0.024,0.073,0.019,0.000,0.005,0.002,0.254,0.251,-9.686,0.000,
0.398,-0.025,0.076,0.017,0.000,0.005,0.002,0.240,0.250,-9.734,0.000,
0.400,-0.023,0.083,0.015,0.000,0.005,0.002,0.222,0.250,-9.787,2.000,
0.402,-0.021,0.087,0.014,-0.000,0.005,0.002,0.211,0.249,-9.832,0.000,
0.404,-0.017,0.096,0.012,-0.000,0.005,0.002,0.207,0.247,-9.861,0.000,
0.406,-0.014,0.101,0.011,-0.000,0.005,0.002,0.208,0.248,-9.877,0.000,
0.408,-0.008,0.113,0.011,-0.000,0.006,0.002,0.216,0.252,-9.899,0.000,
0.412,-0.002,0.125,0.011,-0.000,0.006,0.002,0.229,0.254,-9.967,0.000,
0.414,0.005,0.138,0.012,-0.000,0.006,0.002,0.227,0.258,-10.000,0.000,
0.416,0.007,0.144,0.012,-0.000,0.006,0.002,0.224,0.270,-10.051,0.000,
0.418,0.011,0.159,0.012,-0.000,0.007,0.002,0.220,0.289,-10.115,2.000,
0.420,0.013,0.167,0.013,-0.000,0.007,0.002,0.226,0.315,-10.173,0.000,
0.422,0.017,0.184,0.015,-0.000,0.007,0.002,0.239,0.344,-10.219,0.000,
0.424,0.018,0.193,0.016,-0.000,0.008,0.002,0.259,0.366,-10.260,0.000,
0.426,0.023,0.215,0.021,-0.000,0.008,0.002,0.295,0.392,-10.303,0.000,
0.428,0.025,0.226,0.024,0.000,0.009,0.002,0.338,0.418,-10.350,2.000,
0.430,0.030,0.252,0.031,0.000,0.009,0.002,0.382,0.445,-10.400,0.000,
0.432,0.032,0.266,0.034,0.000,0.010,0.003,0.421,0.465,-10.445,0.000,
0.434,0.038,0.296,0.042,0.000,0.010,0.003,0.450,0.468,-10.490,2.000,
0.439,0.048,0.348,0.053,0.000,0.011,0.003,0.457,0.417,-10.627,0.000,
0.441,0.056,0.386,0.059,0.000,0.011,0.003,0.437,0.376,-10.681,0.000,
0.443,0.061,0.406,0.061,0.001,0.012,0.003,0.422,0.321,-10.729,2.000,
0.445,0.072,0.447,0.062,0.001,0.013,0.003,0.418,0.261,-10.765,0.000,
0.447,0.079,0.468,0.062,0.001,0.014,0.003,0.410,0.195,-10.778,2.000,
0.449,0.093,0.511,0.058,0.001,0.015,0.003,0.403,0.138,-10.751,0.000,
0.451,0.101,0.532,0.056,0.001,0.016,0.003,0.412,0.099,-10.695,2.000,
0.453,0.109,0.553,0.052,0.001,0.017,0.004,0.438,0.079,-10.605,1.000,
0.455,0.125,0.592,0.045,0.002,0.018,0.004,0.461,0.087,-10.480,2.000,
0.457,0.133,0.610,0.042,0.002,0.019,0.004,0.466,0.115,-10.338,2.000,
0.459,0.146,0.641,0.037,0.002,0.020,0.004,0.454,0.144,-10.187,0.000,
0.463,0.160,0.674,0.032,0.002,0.022,0.004,0.392,0.183,-9.868,2.000,
0.465,0.163,0.682,0.030,0.003,0.023,0.004,0.383,0.195,-9.817,2.000,
0.467,0.168,0.693,0.026,0.003,0.024,0.004,0.372,0.230,-9.677,3.000,
0.469,0.171,0.697,0.023,0.003,0.026,0.004,0.371,0.242,-9.631,2.000,
0.471,0.172,0.697,0.021,0.004,0.027,0.004,0.368,0.265,-9.534,2.000,
0.473,0.171,0.694,0.018,0.004,0.029,0.004,0.366,0.301,-9.395,2.000,
0.475,0.170,0.690,0.016,0.004,0.030,0.004,0.373,0.332,-9.317,0.000,
0.477,0.165,0.681,0.016,0.005,0.031,0.004,0.379,0.363,-9.259,3.000,
0.479,0.165,0.681,0.016,0.005,0.033,0.004,0.381,0.377,-9.237,2.000,
0.481,0.157,0.669,0.018,0.005,0.034,0.004,0.394,0.417,-9.173,2.000,
0.483,0.152,0.662,0.019,0.006,0.035,0.004,0.399,0.425,-9.158,2.000,
0.485,0.141,0.646,0.023,0.006,0.037,0.004,0.403,0.427,-9.150,2.000,
0.490,0.121,0.619,0.028,0.006,0.038,0.004,0.408,0.400,-9.199,3.000,
0.492,0.107,0.601,0.030,0.007,0.039,0.004,0.419,0.392,-9.231,0.000,
0.494,0.100,0.593,0.031,0.007,0.040,0.004,0.446,0.380,-9.263,2.000,
0.496,0.087,0.578,0.032,0.007,0.042,0.005,0.489,0.364,-9.296,2.000,
0.498,0.081,0.572,0.033,0.007,0.043,0.005,0.537,0.348,-9.328,2.000,
0.500,0.069,0.561,0.034,0.007,0.044,0.005,0.586,0.337,-9.362,2.000,
0.502,0.062,0.557,0.035,0.007,0.045,0.005,0.638,0.325,-9.403,1.000,
0.504,0.050,0.549,0.038,0.008,0.046,0.005,0.684,0.316,-9.459,2.000,
0.506,0.043,0.547,0.039,0.008,0.047,0.005,0.726,0.311,-9.523,2.000,
0.508,0.037,0.545,0.040,0.008,0.048,0.005,0.763,0.302,-9.575,2.000,
0.510,0.025,0.542,0.043,0.008,0.049,0.005,0.791,0.287,-9.622,0.000,
0.512,0.015,0.543,0.045,0.008,0.051,0.005,0.820,0.271,-9.672,2.000,
0.516,0.006,0.547,0.047,0.008,0.052,0.005,0.868,0.260,-9.771,2.000,
0.518,-0.002,0.553,0.048,0.008,0.053,0.005,0.895,0.259,-9.815,0.000,
0.520,-0.006,0.557,0.049,0.008,0.054,0.005,0.923,0.257,-9.858,2.000,
0.522,-0.012,0.565,0.049,0.008,0.055,0.006,0.949,0.250,-9.903,2.000,
0.524,-0.014,0.570,0.049,0.008,0.056,0.006,0.966,0.245,-9.954,2.000,
0.526,-0.016,0.581,0.048,0.008,0.057,0.006,0.986,0.242,-10.005,0.000,
0.528,-0.018,0.587,0.047,0.008,0.058,0.006,1.006,0.229,-10.052,2.000,
0.530,-0.019,0.602,0.045,0.008,0.060,0.006,1.017,0.186,-10.112,2.000,
0.532,-0.020,0.620,0.043,0.008,0.061,0.006,1.019,0.169,-10.128,2.000,
0.534,-0.020,0.629,0.042,0.008,0.062,0.006,1.032,0.127,-10.159,0.000,
0.536,-0.021,0.639,0.040,0.008,0.063,0.006,1.040,0.113,-10.160,2.000,
0.541,-0.026,0.675,0.029,0.008,0.065,0.006,1.101,0.072,-10.114,2.000,
0.543,-0.028,0.682,0.026,0.008,0.066,0.006,1.128,0.070,-10.083,2.000,
0.545,-0.030,0.689,0.022,0.008,0.067,0.006,1.147,0.082,-10.044,2.000,
0.547,-0.037,0.701,0.016,0.007,0.069,0.006,1.162,0.111,-9.998,2.000,
0.549,-0.045,0.710,0.012,0.007,0.070,0.006,1.176,0.146,-9.952,2.000,
0.551,-0.049,0.713,0.010,0.007,0.071,0.006,1.188,0.178,-9.902,2.000,
0.553,-0.054,0.716,0.008,0.007,0.073,0.006,1.190,0.208,-9.838,2.000,
0.555,-0.063,0.719,0.004,0.007,0.074,0.007,1.182,0.234,-9.760,2.000,
0.557,-0.068,0.719,0.002,0.007,0.076,0.007,1.167,0.250,-9.673,2.000,
0.559,-0.078,0.718,-0.002,0.007,0.077,0.007,1.152,0.261,-9.595,6.000,
0.561,-0.083,0.716,-0.004,0.007,0.079,0.007,1.139,0.267,-9.532,2.000,
0.563,-0.094,0.712,-0.008,0.007,0.080,0.006,1.126,0.272,-9.486,2.000,
0.567,-0.112,0.704,-0.014,0.006,0.082,0.006,1.086,0.265,-9.433,2.000,
0.569,-0.117,0.701,-0.016,0.006,0.083,0.006,1.081,0.256,-9.432,2.000,
0.571,-0.128,0.694,-0.020,0.006,0.084,0.006,1.068,0.240,-9.442,2.000,
0.573,-0.132,0.691,-0.022,0.006,0.086,0.006,1.051,0.225,-9.467,2.000,
0.575,-0.137,0.687,-0.024,0.005,0.087,0.006,1.039,0.213,-9.490,2.000,
0.577,-0.147,0.678,-0.028,0.005,0.088,0.006,1.036,0.202,-9.526,6.000,
0.579,-0.147,0.678,-0.028,0.005,0.090,0.006,1.036,0.196,-9.533,0.000,
0.581,-0.152,0.673,-0.031,0.004,0.091,0.006,1.036,0.179,-9.537,2.000,
0.583,-0.153,0.671,-0.032,0.004,0.093,0.006,1.040,0.162,-9.536,2.000,
0.585,-0.154,0.667,-0.034,0.004,0.094,0.006,1.051,0.148,-9.536,2.000,
0.587,-0.154,0.666,-0.035,0.004,0.095,0.006,1.071,0.139,-9.535,6.000,
0.589,-0.153,0.664,-0.037,0.003,0.097,0.006,1.101,0.138,-9.527,2.000,
0.594,-0.149,0.661,-0.038,0.003,0.098,0.006,1.186,0.163,-9.513,2.000,
0.596,-0.146,0.659,-0.039,0.003,0.099,0.006,1.215,0.165,-9.502,2.000,
0.598,-0.143,0.657,-0.039,0.002,0.101,0.006,1.246,0.174,-9.484,2.000,
0.600,-0.138,0.653,-0.038,0.002,0.102,0.006,1.279,0.183,-9.456,6.000,
0.602,-0.135,0.651,-0.038,0.002,0.103,0.006,1.313,0.196,-9.420,2.000,
0.604,-0.129,0.645,-0.036,0.002,0.104,0.005,1.344,0.209,-9.395,2.000,
0.606,-0.126,0.641,-0.035,0.001,0.106,0.005,1.372,0.215,-9.385,2.000,
0.608,-0.117,0.634,-0.033,0.001,0.107,0.005,1.398,0.219,-9.385,2.000,
0.610,-0.112,0.631,-0.032,0.001,0.108,0.005,1.429,0.229,-9.385,6.000,
0.612,-0.107,0.627,-0.031,0.001,0.110,0.005,1.455,0.248,-9.373,2.000,
0.614,-0.095,0.618,-0.031,0.000,0.111,0.005,1.472,0.268,-9.356,2.000,
0.618,-0.075,0.606,-0.030,0.000,0.112,0.005,1.496,0.293,-9.319,2.000,
0.620,-0.061,0.597,-0.029,0.000,0.113,0.005,1.513,0.284,-9.323,0.000,
0.622,-0.055,0.593,-0.029,-0.000,0.114,0.005,1.519,0.280,-9.334,2.000,
0.624,-0.043,0.586,-0.029,-0.000,0.116,0.005,1.529,0.270,-9.398,2.000,
0.626,-0.036,0.582,-0.030,-0.000,0.117,0.005,1.533,0.262,-9.457,2.000,
0.628,-0.025,0.577,-0.031,-0.000,0.118,0.005,1.535,0.256,-9.507,6.000,
0.630,-0.019,0.575,-0.031,-0.000,0.119,0.005,1.530,0.256,-9.550,2.000,
0.632,-0.014,0.573,-0.030,-0.000,0.120,0.005,1.524,0.260,-9.570,2.000,
0.634,-0.005,0.572,-0.028,-0.000,0.121,0.005,1.490,0.282,-9.616,2.000,
0.636,0.002,0.572,-0.024,-0.000,0.123,0.005,1.464,0.303,-9.629,0.000,
0.638,0.004,0.573,-0.021,-0.000,0.124,0.004,1.447,0.341,-9.643,2.000,
0.640,0.006,0.573,-0.018,-0.000,0.125,0.004,1.437,0.362,-9.651,2.000,
0.645,0.004,0.578,-0.005,-0.000,0.126,0.004,1.403,0.441,-9.743,2.000,
0.647,-0.001,0.582,0.005,-0.000,0.127,0.004,1.410,0.467,-9.811,2.000,
0.649,-0.005,0.586,0.011,-0.000,0.128,0.004,1.432,0.480,-9.881,2.000,
0.651,-0.012,0.595,0.021,-0.000,0.129,0.004,1.456,0.477,-9.943,2.000,
0.653,-0.016,0.600,0.026,-0.000,0.131,0.004,1.478,0.457,-9.992,2.000,
0.655,-0.024,0.612,0.036,-0.000,0.132,0.005,1.503,0.420,-10.031,0.000,
0.657,-0.028,0.619,0.039,-0.001,0.133,0.005,1.516,0.379,-10.056,2.000,
0.659,-0.035,0.632,0.044,-0.001,0.134,0.005,1.532,0.343,-10.055,2.000,
0.661,-0.038,0.639,0.045,-0.001,0.136,0.005,1.553,0.313,-10.040,2.000,
0.663,-0.044,0.653,0.045,-0.001,0.137,0.005,1.583,0.292,-10.021,2.000,
0.665,-0.047,0.660,0.043,-0.001,0.138,0.005,1.622,0.277,-9.990,2.000,
0.669,-0.060,0.684,0.034,-0.001,0.140,0.005,1.696,0.255,-9.884,2.000,
0.671,-0.064,0.689,0.031,-0.001,0.141,0.005,1.737,0.236,-9.827,2.000,
0.673,-0.068,0.692,0.028,-0.001,0.142,0.005,1.750,0.230,-9.816,2.000,
0.675,-0.072,0.696,0.024,-0.001,0.144,0.005,1.774,0.219,-9.799,2.000,
0.677,-0.080,0.701,0.014,-0.001,0.145,0.005,1.793,0.207,-9.789,2.000,
0.679,-0.083,0.703,0.009,-0.002,0.146,0.005,1.809,0.186,-9.778,2.000,
0.681,-0.089,0.708,-0.002,-0.002,0.148,0.005,1.828,0.169,-9.758,6.000,
0.683,-0.092,0.710,-0.007,-0.002,0.149,0.005,1.856,0.168,-9.735,2.000,
0.685,-0.096,0.715,-0.018,-0.002,0.151,0.005,1.895,0.183,-9.687,2.000,
0.687,-0.098,0.717,-0.022,-0.002,0.152,0.005,1.905,0.191,-9.670,2.000,
0.689,-0.101,0.721,-0.031,-0.003,0.154,0.005,1.933,0.213,-9.634,2.000,
0.691,-0.104,0.725,-0.038,-0.003,0.155,0.005,1.947,0.226,-9.624,2.000,
0.696,-0.108,0.732,-0.044,-0.003,0.156,0.005,1.984,0.263,-9.609,2.000,
0.698,-0.109,0.735,-0.046,-0.003,0.158,0.005,2.008,0.275,-9.583,6.000,
0.700,-0.110,0.741,-0.048,-0.003,0.159,0.005,2.023,0.281,-9.550,2.000,
0.702,-0.110,0.743,-0.048,-0.004,0.161,0.005,2.033,0.288,-9.540,2.000,
0.704,-0.110,0.746,-0.049,-0.004,0.162,0.005,2.029,0.301,-9.543,2.000,
0.706,-0.109,0.751,-0.050,-0.004,0.164,0.005,2.007,0.309,-9.546,2.000,
0.708,-0.108,0.756,-0.050,-0.004,0.165,0.005,1.982,0.310,-9.545,2.000,
0.710,-0.106,0.758,-0.051,-0.004,0.167,0.004,1.970,0.303,-9.526,6.000,
0.712,-0.104,0.759,-0.051,-0.005,0.168,0.004,1.975,0.293,-9.501,2.000,
0.714,-0.099,0.761,-0.052,-0.005,0.170,0.004,1.998,0.282,-9.474,2.000,
0.716,-0.096,0.761,-0.053,-0.005,0.171,0.004,2.039,0.274,-9.451,2.000,
0.718,-0.088,0.760,-0.056,-0.005,0.173,0.004,2.080,0.263,-9.443,2.000,
0.722,-0.074,0.759,-0.062,-0.005,0.174,0.004,2.152,0.247,-9.431,2.000,
0.724,-0.068,0.759,-0.063,-0.006,0.176,0.004,2.192,0.236,-9.429,2.000,
0.726,-0.055,0.760,-0.067,-0.006,0.178,0.004,2.223,0.224,-9.438,6.000,
0.728,-0.048,0.760,-0.067,-0.006,0.179,0.004,2.250,0.221,-9.452,2.000,
0.730,-0.033,0.762,-0.068,-0.006,0.181,0.003,2.269,0.227,-9.454,2.000,
0.732,-0.024,0.764,-0.068,-0.006,0.182,0.003,2.282,0.234,-9.447,2.000,
0.734,-0.006,0.768,-0.068,-0.006,0.184,0.003,2.301,0.239,-9.443,2.000,
0.736,0.003,0.770,-0.067,-0.006,0.185,0.003,2.307,0.240,-9.443,2.000,
0.738,0.019,0.773,-0.067,-0.006,0.187,0.003,2.319,0.241,-9.445,2.000,
0.740,0.027,0.775,-0.067,-0.006,0.188,0.003,2.322,0.242,-9.426,2.000,
0.742,0.041,0.776,-0.066,-0.006,0.190,0.003,2.314,0.246,-9.392,2.000,
0.747,0.057,0.774,-0.064,-0.006,0.191,0.002,2.258,0.257,-9.281,2.000,
0.749,0.060,0.771,-0.063,-0.006,0.193,0.002,2.222,0.274,-9.207,2.000,
0.751,0.065,0.765,-0.063,-0.006,0.194,0.002,2.193,0.285,-9.140,2.000,
0.753,0.067,0.761,-0.063,-0.005,0.196,0.002,2.166,0.287,-9.082,2.000,
0.755,0.070,0.750,-0.062,-0.005,0.197,0.002,2.145,0.289,-9.027,2.000,
0.757,0.071,0.744,-0.062,-0.005,0.199,0.002,2.139,0.290,-8.981,2.000,
0.759,0.072,0.729,-0.061,-0.005,0.200,0.002,2.139,0.298,-8.944,3.000,
0.761,0.072,0.721,-0.061,-0.005,0.202,0.002,2.143,0.312,-8.914,2.000,
0.763,0.072,0.703,-0.060,-0.005,0.203,0.001,2.148,0.325,-8.894,2.000,
0.765,0.072,0.693,-0.060,-0.005,0.205,0.001,2.152,0.331,-8.881,2.000,
0.767,0.072,0.683,-0.060,-0.004,0.206,0.001,2.157,0.330,-8.875,2.000,
0.769,0.070,0.663,-0.059,-0.004,0.208,0.001,2.161,0.330,-8.862,2.000,
0.773,0.064,0.634,-0.053,-0.004,0.209,0.001,2.181,0.351,-8.812,2.000,
0.775,0.061,0.624,-0.051,-0.004,0.210,0.001,2.201,0.362,-8.790,2.000,
0.777,0.052,0.603,-0.044,-0.004,0.211,0.001,2.227,0.372,-8.768,3.000,
0.779,0.048,0.592,-0.041,-0.004,0.213,0.001,2.245,0.382,-8.754,2.000,
0.781,0.039,0.571,-0.035,-0.004,0.214,0.001,2.262,0.406,-8.762,2.000,
0.783,0.033,0.548,-0.029,-0.004,0.215,0.001,2.268,0.426,-8.769,2.000,
0.785,0.030,0.537,-0.026,-0.004,0.216,0.000,2.269,0.435,-8.775,2.000,
0.787,0.028,0.525,-0.022,-0.004,0.217,0.000,2.270,0.449,-8.788,2.000,
0.789,0.024,0.499,-0.015,-0.003,0.218,0.000,2.271,0.454,-8.799,2.000,
0.791,0.023,0.486,-0.012,-0.003,0.219,0.000,2.276,0.452,-8.807,2.000,
0.793,0.020,0.458,-0.008,-0.003,0.220,0.000,2.277,0.449,-8.816,2.000,
0.795,0.018,0.429,-0.006,-0.003,0.221,0.000,2.279,0.455,-8.833,2.000,
0.800,0.016,0.382,-0.007,-0.003,0.222,0.000,2.294,0.473,-8.839,2.000,
0.802,0.016,0.365,-0.008,-0.003,0.223,0.000,2.293,0.468,-8.837,0.000,
0.804,0.016,0.348,-0.009,-0.003,0.223,0.000,2.284,0.448,-8.828,2.000,
0.806,0.019,0.313,-0.011,-0.003,0.224,0.000,2.271,0.414,-8.800,2.000,
0.808,0.021,0.296,-0.012,-0.003,0.225,0.000,2.260,0.376,-8.769,0.000,
0.810,0.026,0.259,-0.015,-0.003,0.225,0.000,2.251,0.344,-8.745,2.000,
0.812,0.030,0.239,-0.016,-0.003,0.226,0.000,2.242,0.326,-8.729,2.000,
0.814,0.037,0.198,-0.018,-0.003,0.226,0.000,2.242,0.321,-8.708,0.000,
0.816,0.041,0.177,-0.019,-0.003,0.227,0.000,2.244,0.326,-8.678,2.000,
0.818,0.049,0.131,-0.021,-0.003,0.227,0.000,2.249,0.348,-8.648,0.000,
0.820,0.053,0.108,-0.021,-0.003,0.227,0.000,2.265,0.372,-8.632,0.000,
0.824,0.065,0.033,-0.022,-0.003,0.228,-0.000,2.301,0.403,-8.658,3.000,
0.826,0.073,-0.018,-0.022,-0.002,0.228,-0.000,2.314,0.420,-8.676,0.000,
0.828,0.077,-0.044,-0.022,-0.002,0.228,-0.000,2.328,0.439,-8.682,0.000,
0.830,0.084,-0.095,-0.022,-0.002,0.227,-0.000,2.343,0.463,-8.686,0.000,
0.832,0.088,-0.119,-0.022,-0.002,0.227,-0.000,2.349,0.468,-8.687,0.000,
0.834,0.091,-0.143,-0.022,-0.002,0.227,-0.000,2.369,0.480,-8.692,0.000,
0.836,0.097,-0.189,-0.021,-0.002,0.227,-0.000,2.393,0.492,-8.706,0.000,
0.838,0.099,-0.211,-0.020,-0.001,0.226,-0.000,2.414,0.494,-8.732,0.000,
0.840,0.104,-0.250,-0.017,-0.001,0.226,-0.000,2.434,0.483,-8.763,1.000,
0.842,0.107,-0.285,-0.015,-0.001,0.225,-0.000,2.457,0.449,-8.845,8.000,
0.844,0.108,-0.300,-0.013,-0.001,0.225,-0.000,2.465,0.438,-8.887,0.000,
0.846,0.111,-0.327,-0.012,-0.001,0.224,-0.000,2.493,0.407,-9.033,0.000,
0.851,0.115,-0.354,-0.012,-0.000,0.224,-0.000,2.548,0.370,-9.211,8.000,
0.853,0.117,-0.359,-0.012,-0.000,0.223,-0.000,2.578,0.350,-9.310,1.000,
0.855,0.121,-0.363,-0.013,0.000,0.222,-0.001,2.616,0.333,-9.413,8.000,
0.857,0.123,-0.363,-0.013,0.000,0.221,-0.001,2.663,0.319,-9.494,0.000,
0.859,0.127,-0.360,-0.013,0.001,0.221,-0.001,2.709,0.317,-9.552,8.000,
0.861,0.128,-0.356,-0.014,0.001,0.220,-0.001,2.746,0.325,-9.600,0.000,
0.863,0.129,-0.347,-0.015,0.001,0.219,-0.001,2.775,0.335,-9.639,9.000,
0.865,0.130,-0.341,-0.016,0.001,0.219,-0.001,2.798,0.341,-9.664,0.000,
0.867,0.130,-0.329,-0.018,0.002,0.218,-0.001,2.816,0.334,-9.672,8.000,
0.869,0.129,-0.323,-0.019,0.002,0.217,-0.001,2.823,0.318,-9.677,8.000,
0.871,0.129,-0.317,-0.020,0.002,0.217,-0.001,2.820,0.293,-9.678,0.000,
0.873,0.126,-0.305,-0.021,0.002,0.216,-0.001,2.803,0.264,-9.664,1.000,
0.877,0.119,-0.289,-0.023,0.003,0.215,-0.001,2.748,0.226,-9.626,8.000,
0.879,0.111,-0.282,-0.024,0.003,0.215,-0.001,2.703,0.222,-9.616,0.000,
0.881,0.107,-0.280,-0.025,0.003,0.214,-0.001,2.688,0.224,-9.619,8.000,
0.883,0.102,-0.280,-0.026,0.003,0.214,-0.001,2.660,0.228,-9.638,1.000,
0.885,0.093,-0.281,-0.028,0.004,0.213,-0.001,2.631,0.224,-9.652,8.000,
0.887,0.084,-0.286,-0.031,0.004,0.213,-0.001,2.584,0.222,-9.646,0.000,
0.889,0.079,-0.289,-0.032,0.004,0.212,-0.001,2.545,0.230,-9.633,0.000,
0.891,0.074,-0.293,-0.033,0.004,0.211,-0.001,2.526,0.234,-9.623,8.000,
0.893,0.063,-0.304,-0.036,0.004,0.211,-0.001,2.471,0.241,-9.568,0.000,
0.895,0.057,-0.311,-0.037,0.004,0.210,-0.001,2.454,0.240,-9.544,8.000,
0.897,0.051,-0.318,-0.038,0.004,0.210,-0.001,2.430,0.240,-9.489,1.000,
0.902,0.025,-0.354,-0.044,0.005,0.209,-0.001,2.396,0.263,-9.355,8.000,
0.904,0.012,-0.376,-0.048,0.005,0.208,-0.002,2.384,0.273,-9.311,0.000,
0.906,0.006,-0.387,-0.050,0.005,0.208,-0.002,2.365,0.284,-9.275,8.000,
0.908,-0.000,-0.399,-0.051,0.005,0.207,-0.002,2.348,0.294,-9.250,0.000,
0.910,-0.010,-0.423,-0.053,0.005,0.206,-0.002,2.332,0.307,-9.237,8.000,
0.912,-0.015,-0.435,-0.054,0.005,0.205,-0.002,2.321,0.320,-9.229,8.000,
0.914,-0.022,-0.459,-0.056,0.005,0.204,-0.002,2.306,0.326,-9.218,0.000,
0.916,-0.024,-0.471,-0.058,0.005,0.203,-0.002,2.289,0.321,-9.206,8.000,
0.918,-0.024,-0.495,-0.061,0.004,0.202,-0.002,2.262,0.316,-9.197,8.000,
0.920,-0.023,-0.506,-0.062,0.004,0.201,-0.002,2.236,0.316,-9.184,0.000,
0.922,-0.019,-0.529,-0.063,0.004,0.200,-0.003,2.216,0.325,-9.162,8.000,
0.924,-0.015,-0.541,-0.063,0.004,0.199,-0.003,2.208,0.341,-9.142,8.000,
0.928,0.000,-0.575,-0.060,0.004,0.198,-0.003,2.223,0.364,-9.136,8.000,
0.930,0.006,-0.587,-0.058,0.004,0.197,-0.003,2.224,0.356,-9.141,8.000,
0.932,0.019,-0.610,-0.055,0.004,0.196,-0.003,2.202,0.326,-9.146,8.000,
0.934,0.025,-0.620,-0.054,0.004,0.195,-0.003,2.192,0.311,-9.147,8.000,
0.936,0.039,-0.638,-0.052,0.004,0.193,-0.003,2.173,0.280,-9.147,8.000,
0.938,0.046,-0.644,-0.051,0.005,0.192,-0.003,2.152,0.250,-9.140,8.000,
0.940,0.058,-0.652,-0.051,0.005,0.191,-0.003,2.128,0.207,-9.154,8.000,
0.942,0.063,-0.653,-0.051,0.005,0.190,-0.004,2.122,0.194,-9.161,8.000,
0.944,0.072,-0.648,-0.051,0.005,0.188,-0.004,2.109,0.170,-9.173,8.000,
0.946,0.076,-0.643,-0.052,0.005,0.187,-0.004,2.093,0.153,-9.178,8.000,
0.948,0.082,-0.629,-0.053,0.005,0.186,-0.004,2.073,0.152,-9.176,8.000,
0.953,0.090,-0.603,-0.057,0.005,0.184,-0.004,2.016,0.177,-9.128,9.000,
0.955,0.093,-0.585,-0.061,0.005,0.183,-0.004,2.008,0.191,-9.100,8.000,
0.957,0.094,-0.576,-0.062,0.006,0.182,-0.004,1.997,0.204,-9.073,8.000,
0.959,0.095,-0.561,-0.065,0.006,0.181,-0.004,1.980,0.206,-9.047,8.000,
0.961,0.095,-0.554,-0.066,0.006,0.180,-0.004,1.953,0.207,-9.015,8.000,
0.963,0.093,-0.544,-0.068,0.006,0.179,-0.005,1.914,0.215,-8.985,8.000,
0.965,0.091,-0.540,-0.070,0.006,0.178,-0.005,1.871,0.227,-8.959,9.000,
0.967,0.089,-0.538,-0.072,0.007,0.177,-0.005,1.831,0.244,-8.937,0.000,
0.969,0.083,-0.537,-0.077,0.007,0.175,-0.005,1.793,0.251,-8.913,8.000,
0.971,0.079,-0.539,-0.080,0.007,0.174,-0.005,1.765,0.254,-8.885,8.000,
0.973,0.070,-0.545,-0.086,0.007,0.173,-0.005,1.749,0.255,-8.867,8.000,
0.975,0.065,-0.549,-0.088,0.007,0.172,-0.006,1.734,0.253,-8.857,8.000,
0.979,0.048,-0.569,-0.093,0.007,0.171,-0.006,1.718,0.239,-8.832,9.000,
0.981,0.038,-0.587,-0.096,0.007,0.170,-0.006,1.712,0.238,-8.826,8.000,
0.983,0.033,-0.597,-0.098,0.008,0.169,-0.006,1.701,0.242,-8.835,8.000,
0.985,0.023,-0.619,-0.102,0.008,0.168,-0.006,1.688,0.249,-8.858,8.000,
0.987,0.019,-0.631,-0.104,0.008,0.166,-0.006,1.675,0.253,-8.898,8.000,
0.989,0.012,-0.654,-0.109,0.008,0.165,-0.007,1.670,0.261,-8.955,8.000,
0.991,0.010,-0.666,-0.111,0.008,0.164,-0.007,1.680,0.273,-9.024,8.000,
0.993,0.007,-0.689,-0.114,0.008,0.163,-0.007,1.704,0.308,-9.120,8.000,
0.995,0.007,-0.701,-0.115,0.008,0.161,-0.007,1.713,0.330,-9.175,8.000,
0.997,0.008,-0.713,-0.116,0.008,0.160,-0.008,1.714,0.342,-9.200,8.000,
0.999,0.012,-0.738,-0.116,0.008,0.158,-0.008,1.706,0.364,-9.289,8.000,
1.001,0.019,-0.761,-0.114,0.008,0.157,-0.008,1.695,0.368,-9.350,8.000,
1.006,0.034,-0.794,-0.111,0.008,0.155,-0.008,1.663,0.365,-9.480,8.000,
1.008,0.040,-0.804,-0.110,0.008,0.154,-0.008,1.661,0.358,-9.551,8.000,
1.010,0.053,-0.822,-0.106,0.008,0.152,-0.009,1.669,0.350,-9.624,8.000,
1.012,0.060,-0.831,-0.103,0.008,0.150,-0.009,1.668,0.342,-9.709,8.000,
1.014,0.074,-0.846,-0.098,0.008,0.149,-0.009,1.658,0.331,-9.814,8.000,
1.016,0.081,-0.853,-0.095,0.008,0.147,-0.009,1.637,0.321,-9.915,8.000,
1.018,0.093,-0.865,-0.089,0.009,0.145,-0.010,1.619,0.315,-9.990,9.000,
1.020,0.099,-0.870,-0.086,0.009,0.144,-0.010,1.610,0.319,-10.031,8.000,
1.022,0.104,-0.876,-0.083,0.009,0.142,-0.010,1.609,0.338,-10.047,8.000,
1.024,0.114,-0.886,-0.077,0.009,0.140,-0.010,1.606,0.366,-10.045,8.000,
1.026,0.123,-0.896,-0.071,0.009,0.138,-0.010,1.602,0.391,-10.034,8.000,
1.030,0.130,-0.907,-0.065,0.010,0.137,-0.010,1.602,0.414,-9.971,9.000,
1.032,0.133,-0.919,-0.059,0.010,0.135,-0.010,1.595,0.407,-9.930,8.000,
1.034,0.133,-0.934,-0.053,0.010,0.133,-0.011,1.578,0.376,-9.846,8.000,
1.036,0.131,-0.943,-0.051,0.010,0.131,-0.011,1.566,0.364,-9.824,8.000,
1.038,0.126,-0.963,-0.046,0.011,0.129,-0.011,1.525,0.325,-9.779,9.000,
1.040,0.123,-0.974,-0.044,0.011,0.127,-0.011,1.507,0.304,-9.763,8.000,
1.042,0.117,-1.000,-0.040,0.011,0.125,-0.011,1.445,0.233,-9.705,8.000,
1.044,0.113,-1.014,-0.039,0.011,0.123,-0.011,1.421,0.217,-9.682,8.000,
1.046,0.110,-1.029,-0.038,0.012,0.121,-0.011,1.378,0.195,-9.641,9.000,
1.048,0.107,-1.045,-0.038,0.012,0.119,-0.011,1.340,0.188,-9.611,8.000,
1.050,0.101,-1.079,-0.038,0.012,0.117,-0.011,1.303,0.188,-9.590,8.000,
1.052,0.098,-1.097,-0.038,0.012,0.115,-0.011,1.257,0.194,-9.584,8.000,
1.057,0.087,-1.170,-0.039,0.013,0.113,-0.011,1.143,0.196,-9.646,8.000,
1.059,0.084,-1.188,-0.039,0.013,0.111,-0.011,1.093,0.170,-9.684,9.000,
1.061,0.079,-1.221,-0.041,0.013,0.108,-0.012,1.046,0.117,-9.720,8.000,
1.063,0.075,-1.250,-0.043,0.013,0.106,-0.012,1.003,0.061,-9.738,8.000,
1.065,0.074,-1.263,-0.045,0.013,0.103,-0.012,0.981,0.044,-9.736,8.000,
1.067,0.072,-1.275,-0.048,0.013,0.101,-0.012,0.982,0.059,-9.720,8.000,
1.069,0.069,-1.298,-0.053,0.013,0.098,-0.012,0.995,0.089,-9.710,8.000,
1.071,0.068,-1.307,-0.055,0.014,0.096,-0.012,1.012,0.129,-9.705,9.000,
1.073,0.063,-1.320,-0.059,0.014,0.093,-0.012,1.020,0.161,-9.702,8.000,
1.075,0.061,-1.324,-0.059,0.014,0.090,-0.012,1.013,0.181,-9.695,8.000,
1.077,0.056,-1.324,-0.060,0.014,0.088,-0.012,1.006,0.195,-9.698,8.000,
1.079,0.054,-1.321,-0.060,0.014,0.085,-0.012,1.003,0.204,-9.717,8.000,
1.083,0.049,-1.300,-0.061,0.014,0.082,-0.013,0.995,0.210,-9.745,8.000,
1.085,0.046,-1.278,-0.061,0.014,0.080,-0.013,0.989,0.212,-9.744,8.000,
1.087,0.045,-1.251,-0.061,0.014,0.077,-0.013,0.956,0.213,-9.725,8.000,
1.089,0.045,-1.237,-0.061,0.014,0.075,-0.013,0.922,0.212,-9.707,9.000,
1.091,0.046,-1.222,-0.061,0.015,0.072,-0.013,0.907,0.209,-9.697,8.000,
1.093,0.049,-1.192,-0.061,0.015,0.070,-0.013,0.882,0.188,-9.663,8.000,
1.095,0.052,-1.176,-0.061,0.015,0.067,-0.013,0.884,0.182,-9.647,8.000,
1.097,0.055,-1.161,-0.061,0.015,0.065,-0.013,0.898,0.169,-9.607,8.000,
1.099,0.061,-1.131,-0.059,0.015,0.063,-0.014,0.913,0.158,-9.564,8.000,
1.101,0.064,-1.117,-0.057,0.015,0.060,-0.014,0.924,0.155,-9.518,8.000,
1.103,0.070,-1.089,-0.053,0.015,0.058,-0.014,0.932,0.160,-9.482,8.000,
1.108,0.078,-1.047,-0.047,0.015,0.056,-0.014,0.920,0.171,-9.452,8.000,
1.110,0.083,-1.019,-0.045,0.016,0.054,-0.014,0.913,0.169,-9.438,9.000,
1.112,0.085,-1.004,-0.043,0.016,0.052,-0.014,0.904,0.169,-9.416,8.000,
1.114,0.087,-0.973,-0.041,0.016,0.050,-0.014,0.899,0.164,-9.382,8.000,
1.116,0.087,-0.957,-0.040,0.016,0.048,-0.014,0.890,0.148,-9.343,8.000,
1.118,0.085,-0.941,-0.039,0.016,0.046,-0.014,0.871,0.141,-9.305,8.000,
1.120,0.077,-0.910,-0.037,0.016,0.044,-0.014,0.849,0.149,-9.269,9.000,
1.122,0.066,-0.881,-0.035,0.017,0.042,-0.015,0.820,0.166,-9.233,8.000,
1.124,0.059,-0.867,-0.035,0.017,0.041,-0.015,0.778,0.183,-9.214,8.000,
1.126,0.053,-0.854,-0.036,0.017,0.039,-0.015,0.736,0.190,-9.214,8.000,
1.128,0.040,-0.830,-0.037,0.017,0.037,-0.015,0.701,0.192,-9.220,8.000,
1.130,0.035,-0.820,-0.038,0.017,0.035,-0.015,0.677,0.204,-9.225,8.000,
1.134,0.022,-0.792,-0.041,0.017,0.034,-0.015,0.633,0.216,-9.260,8.000,
1.136,0.017,-0.776,-0.044,0.017,0.032,-0.015,0.602,0.213,-9.300,8.000,
1.138,0.015,-0.769,-0.045,0.017,0.031,-0.015,0.572,0.210,-9.336,8.000,
1.140,0.013,-0.756,-0.047,0.017,0.029,-0.015,0.551,0.207,-9.368,9.000,
1.142,0.012,-0.745,-0.048,0.017,0.028,-0.015,0.532,0.204,-9.393,8.000,
1.144,0.011,-0.739,-0.048,0.017,0.026,-0.015,0.510,0.203,-9.381,8.000,
1.146,0.008,-0.734,-0.047,0.017,0.025,-0.015,0.498,0.203,-9.370,8.000,
1.148,0.001,-0.724,-0.045,0.017,0.023,-0.016,0.444,0.213,-9.353,8.000,
1.150,-0.003,-0.719,-0.044,0.017,0.022,-0.016,0.418,0.226,-9.350,8.000,
1.152,-0.007,-0.715,-0.043,0.017,0.020,-0.016,0.363,0.252,-9.347,8.000,
1.154,-0.015,-0.709,-0.042,0.017,0.019,-0.016,0.313,0.252,-9.340,8.000,
1.156,-0.018,-0.707,-0.042,0.017,0.018,-0.016,0.279,0.248,-9.331,8.000,
1.161,-0.025,-0.702,-0.043,0.017,0.016,-0.016,0.279,0.295,-9.341,8.000,
1.163,-0.025,-0.702,-0.042,0.017,0.015,-0.016,0.277,0.328,-9.365,8.000,
1.165,-0.026,-0.701,-0.038,0.017,0.013,-0.016,0.259,0.357,-9.401,8.000,
1.167,-0.026,-0.700,-0.035,0.017,0.012,-0.016,0.227,0.379,-9.452,8.000,
1.169,-0.023,-0.700,-0.029,0.017,0.010,-0.016,0.188,0.385,-9.516,8.000,
1.171,-0.021,-0.700,-0.026,0.017,0.009,-0.016,0.143,0.377,-9.578,8.000,
1.173,-0.013,-0.701,-0.022,0.017,0.008,-0.016,0.097,0.356,-9.627,8.000,
1.175,-0.008,-0.702,-0.021,0.017,0.006,-0.016,0.050,0.325,-9.660,12.000,
1.177,0.002,-0.705,-0.020,0.017,0.005,-0.016,0.012,0.294,-9.691,8.000,
1.179,0.006,-0.708,-0.019,0.017,0.003,-0.016,-0.031,0.271,-9.724,8.000,
1.181,0.015,-0.715,-0.019,0.017,0.002,-0.017,-0.076,0.248,-9.741,8.000,
1.185,0.024,-0.725,-0.020,0.017,0.001,-0.017,-0.121,0.210,-9.761,8.000,
1.187,0.037,-0.747,-0.020,0.017,-0.001,-0.017,-0.135,0.154,-9.749,8.000,
1.189,0.041,-0.755,-0.020,0.017,-0.002,-0.017,-0.161,0.100,-9.761,8.000,
1.191,0.044,-0.764,-0.020,0.017,-0.004,-0.017,-0.173,0.078,-9.772,8.000,
1.193,0.052,-0.782,-0.020,0.017,-0.005,-0.017,-0.211,0.054,-9.808,8.000,
1.195,0.057,-0.791,-0.021,0.017,-0.007,-0.017,-0.238,0.064,-9.832,8.000,
1.197,0.063,-0.801,-0.022,0.017,-0.008,-0.017,-0.248,0.072,-9.843,8.000,
1.199,0.075,-0.820,-0.025,0.018,-0.010,-0.017,-0.261,0.096,-9.854,8.000,
1.201,0.082,-0.830,-0.026,0.018,-0.012,-0.017,-0.265,0.122,-9.850,9.000,
1.203,0.096,-0.850,-0.028,0.018,-0.013,-0.017,-0.262,0.151,-9.840,8.000,
1.205,0.110,-0.869,-0.028,0.018,-0.015,-0.017,-0.238,0.208,-9.834,8.000,
1.207,0.116,-0.879,-0.028,0.018,-0.017,-0.017,-0.227,0.243,-9.826,8.000,
1.212,0.132,-0.907,-0.025,0.019,-0.019,-0.017,-0.209,0.306,-9.837,8.000,
1.214,0.141,-0.922,-0.021,0.019,-0.020,-0.017,-0.183,0.332,-9.844,9.000,
1.216,0.143,-0.929,-0.017,0.019,-0.022,-0.017,-0.166,0.340,-9.833,8.000,
1.218,0.145,-0.938,-0.009,0.019,-0.024,-0.017,-0.169,0.337,-9.829,8.000,
1.220,0.144,-0.942,-0.004,0.020,-0.026,-0.017,-0.175,0.341,-9.830,9.000,
1.222,0.139,-0.947,0.002,0.020,-0.028,-0.017,-0.171,0.354,-9.840,8.000,
1.224,0.136,-0.949,0.005,0.020,-0.030,-0.017,-0.162,0.377,-9.859,8.000,
1.226,0.133,-0.950,0.007,0.021,-0.032,-0.017,-0.154,0.392,-9.878,9.000,
1.228,0.125,-0.950,0.010,0.021,-0.034,-0.017,-0.134,0.395,-9.890,8.000,
1.230,0.121,-0.948,0.012,0.021,-0.035,-0.017,-0.102,0.389,-9.881,8.000,
1.232,0.112,-0.942,0.017,0.021,-0.037,-0.017,-0.068,0.366,-9.853,8.000,
1.236,0.090,-0.926,0.026,0.021,-0.039,-0.017,-0.042,0.293,-9.823,9.000,
1.238,0.071,-0.910,0.030,0.022,-0.041,-0.017,-0.047,0.265,-9.833,8.000,
1.240,0.061,-0.901,0.032,0.022,-0.043,-0.017,-0.060,0.257,-9.844,8.000,
1.242,0.043,-0.881,0.033,0.022,-0.045,-0.017,-0.075,0.265,-9.827,8.000,
1.244,0.043,-0.881,0.033,0.022,-0.046,-0.017,-0.074,0.270,-9.819,9.000,
1.246,0.028,-0.857,0.034,0.022,-0.048,-0.017,-0.068,0.274,-9.803,8.000,
1.248,0.022,-0.844,0.034,0.022,-0.050,-0.017,-0.073,0.257,-9.788,8.000,
1.250,0.011,-0.815,0.037,0.022,-0.052,-0.017,-0.084,0.225,-9.781,8.000,
1.252,0.001,-0.784,0.038,0.022,-0.053,-0.017,-0.094,0.196,-9.781,8.000,
1.254,-0.004,-0.769,0.038,0.022,-0.055,-0.017,-0.096,0.170,-9.797,8.000,
1.256,-0.010,-0.754,0.038,0.022,-0.056,-0.016,-0.100,0.162,-9.797,8.000,
1.258,-0.021,-0.722,0.039,0.022,-0.058,-0.016,-0.113,0.148,-9.790,8.000,
1.263,-0.037,-0.675,0.040,0.022,-0.059,-0.016,-0.176,0.141,-9.806,8.000,
1.265,-0.046,-0.645,0.040,0.022,-0.061,-0.016,-0.212,0.146,-9.823,8.000,
1.267,-0.049,-0.630,0.040,0.022,-0.062,-0.016,-0.251,0.153,-9.847,8.000,
1.269,-0.055,-0.601,0.041,0.022,-0.063,-0.016,-0.289,0.159,-9.873,8.000,
1.271,-0.057,-0.588,0.042,0.022,-0.064,-0.016,-0.326,0.157,-9.882,8.000,
1.273,-0.062,-0.563,0.044,0.022,-0.066,-0.016,-0.355,0.133,-9.882,8.000,
1.275,-0.064,-0.552,0.045,0.022,-0.067,-0.016,-0.379,0.102,-9.885,8.000,
1.277,-0.067,-0.541,0.045,0.021,-0.068,-0.016,-0.394,0.082,-9.888,8.000,
1.279,-0.071,-0.523,0.044,0.021,-0.069,-0.016,-0.400,0.075,-9.876,8.000,
1.281,-0.073,-0.508,0.041,0.021,-0.070,-0.016,-0.407,0.075,-9.856,12.000,
1.283,-0.072,-0.501,0.039,0.021,-0.071,-0.015,-0.425,0.076,-9.831,8.000,
1.285,-0.072,-0.495,0.038,0.021,-0.072,-0.015,-0.448,0.083,-9.794,8.000,
1.289,-0.067,-0.482,0.034,0.021,-0.073,-0.015,-0.511,0.099,-9.702,8.000,
1.291,-0.062,-0.477,0.032,0.021,-0.074,-0.015,-0.562,0.084,-9.631,8.000,
1.293,-0.059,-0.476,0.031,0.020,-0.075,-0.015,-0.587,0.082,-9.614,8.000,
1.295,-0.053,-0.477,0.030,0.020,-0.076,-0.015,-0.645,0.092,-9.584,8.000,
1.297,-0.045,-0.484,0.027,0.020,-0.077,-0.015,-0.701,0.108,-9.562,12.000,
1.299,-0.041,-0.489,0.026,0.020,-0.078,-0.015,-0.749,0.123,-9.544,8.000,
1.301,-0.032,-0.504,0.023,0.020,-0.079,-0.015,-0.781,0.133,-9.531,8.000,
1.303,-0.027,-0.513,0.023,0.020,-0.080,-0.015,-0.805,0.140,-9.523,8.000,
1.305,-0.022,-0.522,0.023,0.020,-0.081,-0.015,-0.827,0.149,-9.519,8.000,
1.307,-0.018,-0.532,0.022,0.020,-0.082,-0.015,-0.842,0.161,-9.507,8.000,
1.309,-0.009,-0.554,0.022,0.020,-0.083,-0.015,-0.847,0.171,-9.486,8.000,
1.314,0.004,-0.590,0.022,0.020,-0.084,-0.015,-0.836,0.175,-9.393,8.000,
1.316,0.010,-0.614,0.025,0.020,-0.085,-0.015,-0.824,0.171,-9.355,8.000,
1.318,0.014,-0.640,0.027,0.020,-0.086,-0.015,-0.807,0.173,-9.320,8.000,
1.320,0.015,-0.652,0.028,0.020,-0.088,-0.015,-0.787,0.188,-9.295,8.000,
1.322,0.017,-0.665,0.029,0.020,-0.089,-0.015,-0.755,0.213,-9.271,8.000,
1.324,0.022,-0.689,0.030,0.020,-0.090,-0.014,-0.726,0.234,-9.249,8.000,
1.326,0.024,-0.700,0.032,0.020,-0.092,-0.014,-0.706,0.247,-9.234,8.000,
1.328,0.028,-0.722,0.035,0.020,-0.093,-0.014,-0.704,0.250,-9.213,8.000,
1.330,0.029,-0.732,0.036,0.020,-0.094,-0.014,-0.718,0.240,-9.196,8.000,
1.332,0.030,-0.750,0.040,0.020,-0.096,-0.014,-0.738,0.223,-9.200,8.000,
1.334,0.030,-0.757,0.041,0.020,-0.097,-0.014,-0.760,0.206,-9.228,8.000,
1.336,0.031,-0.769,0.042,0.020,-0.099,-0.014,-0.792,0.191,-9.263,9.000,
1.340,0.034,-0.779,0.043,0.020,-0.100,-0.014,-0.859,0.161,-9.314,8.000,
1.342,0.036,-0.782,0.044,0.020,-0.102,-0.014,-0.872,0.149,-9.325,8.000,
1.344,0.040,-0.787,0.045,0.021,-0.104,-0.014,-0.899,0.118,-9.349,8.000,
1.346,0.043,-0.789,0.045,0.021,-0.105,-0.014,-0.926,0.090,-9.378,8.000,
1.348,0.046,-0.789,0.044,0.021,-0.107,-0.014,-0.942,0.089,-9.405,8.000,
1.350,0.052,-0.789,0.041,0.021,-0.108,-0.014,-0.940,0.138,-9.444,8.000,
1.352,0.056,-0.788,0.039,0.021,-0.110,-0.013,-0.936,0.159,-9.460,8.000,
1.354,0.061,-0.784,0.037,0.021,-0.111,-0.013,-0.932,0.202,-9.494,8.000,
1.356,0.062,-0.781,0.037,0.021,-0.113,-0.013,-0.940,0.246,-9.537,9.000,
1.358,0.063,-0.774,0.037,0.021,-0.115,-0.013,-0.975,0.300,-9.621,8.000,
1.360,0.059,-0.766,0.038,0.021,-0.116,-0.013,-0.985,0.315,-9.650,8.000,
1.362,0.057,-0.761,0.039,0.022,-0.118,-0.013,-0.997,0.339,-9.698,8.000,
1.367,0.045,-0.745,0.041,0.022,-0.119,-0.013,-1.005,0.335,-9.735,8.000,
1.369,0.034,-0.734,0.043,0.022,-0.121,-0.013,-1.012,0.318,-9.763,8.000,
1.371,0.027,-0.727,0.044,0.022,-0.122,-0.013,-1.016,0.300,-9.798,8.000,
1.373,0.014,-0.712,0.045,0.022,-0.124,-0.013,-1.022,0.284,-9.839,9.000,
1.375,0.007,-0.704,0.045,0.022,-0.125,-0.013,-1.034,0.274,-9.879,8.000,
1.377,-0.007,-0.686,0.044,0.022,-0.126,-0.013,-1.052,0.267,-9.911,8.000,
1.379,-0.014,-0.676,0.043,0.022,-0.128,-0.012,-1.064,0.262,-9.938,8.000,
1.381,-0.021,-0.666,0.042,0.022,-0.129,-0.012,-1.074,0.260,-9.961,8.000,
1.383,-0.034,-0.646,0.040,0.022,-0.130,-0.012,-1.088,0.256,-9.978,8.000,
1.385,-0.039,-0.635,0.039,0.022,-0.132,-0.012,-1.104,0.247,-9.984,8.000,
1.387,-0.049,-0.614,0.035,0.022,-0.133,-0.012,-1.111,0.232,-9.985,8.000,
1.391,-0.060,-0.581,0.029,0.022,-0.134,-0.012,-1.118,0.177,-9.985,8.000,
1.393,-0.064,-0.560,0.026,0.021,-0.135,-0.012,-1.128,0.153,-9.987,8.000,
1.395,-0.066,-0.549,0.025,0.021,-0.137,-0.012,-1.138,0.138,-9.999,12.000,
1.397,-0.067,-0.538,0.024,0.021,-0.138,-0.012,-1.148,0.131,-10.017,8.000,
1.399,-0.067,-0.517,0.021,0.021,-0.139,-0.012,-1.159,0.131,-10.027,8.000,
1.401,-0.066,-0.506,0.021,0.021,-0.140,-0.012,-1.176,0.142,-10.026,8.000,
1.403,-0.062,-0.485,0.021,0.021,-0.141,-0.012,-1.196,0.151,-10.019,8.000,
1.405,-0.058,-0.474,0.021,0.021,-0.142,-0.012,-1.222,0.147,-10.006,8.000,
1.407,-0.054,-0.464,0.021,0.021,-0.143,-0.012,-1.249,0.136,-9.982,12.000,
1.409,-0.039,-0.435,0.021,0.020,-0.144,-0.012,-1.276,0.125,-9.956,8.000,
1.411,-0.039,-0.435,0.021,0.020,-0.144,-0.012,-1.297,0.116,-9.932,8.000,
1.413,-0.029,-0.418,0.020,0.020,-0.145,-0.012,-1.310,0.114,-9.888,8.000,
1.418,-0.009,-0.394,0.018,0.020,-0.146,-0.011,-1.336,0.128,-9.673,8.000,
1.420,-0.005,-0.390,0.017,0.020,-0.147,-0.011,-1.355,0.130,-9.589,8.000,
1.422,-0.002,-0.388,0.017,0.020,-0.148,-0.011,-1.377,0.130,-9.520,8.000,
1.424,0.004,-0.388,0.016,0.020,-0.149,-0.011,-1.397,0.132,-9.465,8.000,
1.426,0.007,-0.391,0.016,0.020,-0.149,-0.011,-1.412,0.146,-9.415,8.000,
1.428,0.014,-0.401,0.015,0.020,-0.150,-0.011,-1.424,0.171,-9.366,8.000,
1.430,0.017,-0.408,0.015,0.020,-0.151,-0.011,-1.431,0.187,-9.328,8.000,
1.432,0.025,-0.425,0.014,0.020,-0.152,-0.011,-1.434,0.185,-9.292,8.000,
1.434,0.030,-0.435,0.014,0.020,-0.153,-0.011,-1.436,0.169,-9.263,8.000,
1.436,0.036,-0.456,0.014,0.020,-0.153,-0.011,-1.431,0.149,-9.253,8.000,
1.438,0.039,-0.467,0.015,0.021,-0.154,-0.011,-1.421,0.139,-9.266,8.000,
1.440,0.040,-0.478,0.015,0.021,-0.155,-0.011,-1.415,0.138,-9.287,8.000,
1.444,0.040,-0.512,0.015,0.021,-0.156,-0.011,-1.417,0.148,-9.350,8.000,
1.446,0.037,-0.532,0.015,0.021,-0.157,-0.011,-1.425,0.175,-9.408,8.000,
1.448,0.036,-0.542,0.016,0.021,-0.158,-0.011,-1.424,0.181,-9.427,9.000,
1.450,0.034,-0.558,0.017,0.021,-0.159,-0.011,-1.424,0.192,-9.465,8.000,
1.452,0.032,-0.565,0.017,0.021,-0.161,-0.011,-1.420,0.200,-9.501,8.000,
1.454,0.029,-0.575,0.018,0.021,-0.162,-0.011,-1.410,0.206,-9.531,8.000,
1.456,0.027,-0.579,0.019,0.021,-0.163,-0.011,-1.399,0.209,-9.558,8.000,
1.458,0.023,-0.584,0.021,0.021,-0.164,-0.011,-1.387,0.209,-9.582,8.000,
1.460,0.021,-0.585,0.022,0.021,-0.165,-0.011,-1.375,0.207,-9.601,8.000,
1.462,0.016,-0.584,0.023,0.021,-0.166,-0.011,-1.369,0.209,-9.603,8.000,
1.464,0.014,-0.582,0.023,0.021,-0.167,-0.011,-1.374,0.210,-9.601,8.000,
1.469,0.006,-0.568,0.021,0.021,-0.169,-0.011,-1.412,0.223,-9.561,8.000,
1.471,0.005,-0.563,0.020,0.021,-0.170,-0.011,-1.426,0.227,-9.541,8.000,
1.473,0.003,-0.552,0.018,0.021,-0.171,-0.011,-1.429,0.218,-9.527,8.000,
1.475,0.001,-0.545,0.018,0.021,-0.172,-0.011,-1.429,0.200,-9.534,8.000,
1.477,-0.001,-0.538,0.018,0.021,-0.173,-0.011,-1.435,0.181,-9.548,8.000,
1.479,-0.004,-0.523,0.017,0.021,-0.174,-0.011,-1.445,0.161,-9.555,8.000,
1.481,-0.006,-0.515,0.017,0.021,-0.175,-0.010,-1.454,0.143,-9.555,8.000,
1.483,-0.008,-0.498,0.016,0.021,-0.176,-0.010,-1.468,0.119,-9.543,8.000,
1.485,-0.008,-0.490,0.016,0.021,-0.177,-0.010,-1.492,0.100,-9.517,8.000,
1.487,-0.008,-0.472,0.015,0.021,-0.178,-0.010,-1.522,0.088,-9.495,8.000,
1.489,-0.008,-0.464,0.015,0.021,-0.179,-0.010,-1.549,0.080,-9.470,8.000,
1.491,-0.006,-0.448,0.015,0.021,-0.180,-0.010,-1.575,0.077,-9.445,8.000,
1.495,-0.002,-0.428,0.017,0.021,-0.181,-0.010,-1.645,0.100,-9.407,8.000,
1.497,0.003,-0.417,0.018,0.021,-0.182,-0.010,-1.684,0.126,-9.401,8.000,
1.499,0.003,-0.417,0.018,0.021,-0.183,-0.010,-1.723,0.153,-9.403,8.000,
1.501,0.010,-0.409,0.020,0.021,-0.183,-0.010,-1.759,0.181,-9.405,8.000,
1.503,0.018,-0.401,0.023,0.021,-0.184,-0.010,-1.783,0.198,-9.403,8.000,
1.505,0.022,-0.397,0.025,0.021,-0.185,-0.010,-1.799,0.212,-9.394,9.000,
1.507,0.025,-0.394,0.026,0.021,-0.186,-0.010,-1.819,0.220,-9.389,8.000,
1.509,0.031,-0.389,0.031,0.021,-0.187,-0.010,-1.837,0.225,-9.388,8.000,
1.511,0.033,-0.387,0.033,0.021,-0.187,-0.010,-1.847,0.233,-9.398,8.000,
1.513,0.036,-0.385,0.038,0.022,-0.188,-0.010,-1.856,0.235,-9.402,8.000,
1.515,0.036,-0.384,0.040,0.022,-0.189,-0.010,-1.865,0.233,-9.400,8.000,
1.520,0.033,-0.379,0.045,0.022,-0.190,-0.010,-1.862,0.220,-9.392,8.000,
1.522,0.031,-0.377,0.046,0.022,-0.191,-0.010,-1.864,0.202,-9.393,8.000,
1.524,0.028,-0.370,0.047,0.022,-0.191,-0.010,-1.863,0.184,-9.399,8.000,
1.526,0.026,-0.366,0.047,0.022,-0.192,-0.009,-1.855,0.172,-9.405,8.000,
1.528,0.023,-0.358,0.046,0.022,-0.193,-0.009,-1.842,0.162,-9.409,8.000,
1.530,0.022,-0.354,0.046,0.022,-0.193,-0.009,-1.823,0.158,-9.420,9.000,
1.532,0.018,-0.345,0.043,0.022,-0.194,-0.009,-1.811,0.159,-9.436,8.000,
1.534,0.016,-0.340,0.041,0.022,-0.195,-0.009,-1.802,0.169,-9.454,8.000,
1.536,0.013,-0.328,0.036,0.022,-0.196,-0.009,-1.790,0.179,-9.470,8.000,
1.538,0.012,-0.321,0.034,0.022,-0.196,-0.009,-1.776,0.187,-9.489,8.000,
1.540,0.011,-0.314,0.031,0.022,-0.197,-0.009,-1.762,0.192,-9.506,8.000,
1.542,0.010,-0.299,0.025,0.022,-0.197,-0.009,-1.751,0.193,-9.535,8.000,
1.546,0.009,-0.273,0.017,0.022,-0.198,-0.009,-1.748,0.189,-9.606,8.000,
1.548,0.008,-0.264,0.014,0.022,-0.199,-0.009,-1.754,0.189,-9.647,8.000,
1.550,0.008,-0.246,0.010,0.022,-0.199,-0.009,-1.761,0.189,-9.685,8.000,
1.552,0.009,-0.228,0.006,0.022,-0.200,-0.009,-1.758,0.186,-9.712,8.000,
1.554,0.010,-0.219,0.005,0.022,-0.200,-0.009,-1.750,0.180,-9.715,0.000,
1.556,0.010,-0.209,0.003,0.022,-0.200,-0.009,-1.747,0.181,-9.716,8.000,
1.558,0.010,-0.189,0.001,0.022,-0.201,-0.009,-1.751,0.189,-9.721,8.000,
1.560,0.009,-0.169,-0.001,0.022,-0.201,-0.009,-1.764,0.200,-9.721,8.000,
1.562,0.007,-0.159,-0.001,0.022,-0.202,-0.009,-1.774,0.212,-9.706,0.000,
1.564,0.005,-0.148,-0.001,0.022,-0.202,-0.009,-1.779,0.223,-9.686,8.000,
1.566,0.003,-0.138,-0.001,0.022,-0.202,-0.009,-1.781,0.229,-9.671,0.000,
1.568,-0.001,-0.119,0.000,0.022,-0.203,-0.009,-1.771,0.229,-9.652,8.000,
1.573,-0.011,-0.079,0.006,0.022,-0.203,-0.009,-1.714,0.188,-9.634,0.000,
1.575,-0.013,-0.069,0.008,0.022,-0.203,-0.009,-1.704,0.160,-9.648,8.000,
1.577,-0.016,-0.058,0.010,0.022,-0.203,-0.009,-1.699,0.131,-9.664,0.000,
1.579,-0.022,-0.034,0.014,0.022,-0.203,-0.009,-1.707,0.100,-9.679,0.000,
1.581,-0.025,-0.021,0.017,0.022,-0.203,-0.009,-1.716,0.073,-9.684,8.000,
1.583,-0.030,0.008,0.020,0.022,-0.203,-0.009,-1.724,0.055,-9.675,0.000,
1.585,-0.032,0.023,0.021,0.022,-0.203,-0.008,-1.734,0.051,-9.666,0.000,
1.587,-0.036,0.054,0.022,0.022,-0.203,-0.008,-1.737,0.057,-9.657,0.000,
1.589,-0.038,0.071,0.023,0.022,-0.203,-0.008,-1.731,0.068,-9.643,0.000,
1.591,-0.042,0.104,0.025,0.022,-0.203,-0.008,-1.726,0.080,-9.634,4.000,
1.593,-0.043,0.121,0.027,0.022,-0.203,-0.008,-1.730,0.093,-9.622,0.000,
1.597,-0.047,0.170,0.033,0.022,-0.203,-0.008,-1.715,0.127,-9.605,0.000,
1.599,-0.049,0.186,0.035,0.022,-0.202,-0.008,-1.698,0.145,-9.602,2.000,
1.601,-0.051,0.216,0.037,0.022,-0.202,-0.008,-1.682,0.151,-9.606,0.000,
1.603,-0.053,0.230,0.037,0.022,-0.201,-0.008,-1.668,0.148,-9.616,2.000,
1.605,-0.056,0.271,0.038,0.021,-0.201,-0.008,-1.652,0.136,-9.629,0.000,
1.607,-0.056,0.271,0.038,0.021,-0.200,-0.008,-1.630,0.124,-9.648,2.000,
1.609,-0.058,0.298,0.038,0.021,-0.200,-0.008,-1.610,0.119,-9.665,4.000,
1.611,-0.058,0.311,0.038,0.021,-0.199,-0.008,-1.591,0.122,-9.679,2.000,
1.613,-0.058,0.336,0.038,0.021,-0.199,-0.008,-1.577,0.134,-9.692,2.000,
1.615,-0.058,0.349,0.038,0.021,-0.198,-0.008,-1.577,0.146,-9.700,2.000,
1.617,-0.057,0.372,0.036,0.021,-0.197,-0.007,-1.584,0.153,-9.700,2.000,
1.619,-0.056,0.383,0.034,0.021,-0.196,-0.007,-1.603,0.169,-9.692,2.000,
1.624,-0.048,0.425,0.030,0.021,-0.196,-0.007,-1.657,0.199,-9.621,6.000,
1.626,-0.046,0.435,0.029,0.020,-0.195,-0.007,-1.678,0.199,-9.594,2.000,
1.628,-0.042,0.454,0.028,0.020,-0.194,-0.007,-1.697,0.200,-9.577,2.000,
1.630,-0.040,0.463,0.027,0.020,-0.193,-0.007,-1.713,0.198,-9.566,2.000,
1.632,-0.038,0.472,0.026,0.020,-0.192,-0.007,-1.734,0.189,-9.562,2.000,
1.634,-0.034,0.490,0.026,0.020,-0.191,-0.007,-1.753,0.179,-9.572,2.000,
1.636,-0.032,0.500,0.026,0.020,-0.190,-0.007,-1.765,0.174,-9.588,2.000,
1.638,-0.027,0.519,0.026,0.020,-0.189,-0.007,-1.777,0.175,-9.608,2.000,
1.640,-0.026,0.529,0.026,0.020,-0.188,-0.007,-1.787,0.182,-9.631,2.000,
1.642,-0.023,0.551,0.026,0.020,-0.187,-0.007,-1.786,0.194,-9.656,6.000,
1.644,-0.023,0.563,0.027,0.020,-0.186,-0.007,-1.768,0.209,-9.691,2.000,
1.646,-0.024,0.589,0.028,0.020,-0.185,-0.007,-1.743,0.225,-9.732,2.000,
1.650,-0.029,0.634,0.032,0.020,-0.184,-0.007,-1.668,0.266,-9.782,2.000,
1.652,-0.031,0.651,0.033,0.020,-0.182,-0.007,-1.618,0.292,-9.787,2.000,
1.654,-0.035,0.685,0.036,0.020,-0.181,-0.007,-1.534,0.323,-9.772,2.000,
1.656,-0.037,0.702,0.037,0.020,-0.180,-0.006,-1.506,0.332,-9.764,2.000,
1.658,-0.040,0.735,0.041,0.019,-0.178,-0.006,-1.451,0.349,-9.745,2.000,
1.660,-0.042,0.751,0.042,0.019,-0.177,-0.006,-1.397,0.358,-9.730,2.000,
1.662,-0.044,0.782,0.047,0.019,-0.175,-0.006,-1.352,0.355,-9.712,2.000,
1.664,-0.045,0.797,0.049,0.019,-0.174,-0.006,-1.327,0.348,-9.703,2.000,
1.666,-0.047,0.811,0.052,0.019,-0.172,-0.006,-1.318,0.340,-9.695,2.000,
1.668,-0.050,0.837,0.056,0.019,-0.171,-0.006,-1.312,0.333,-9.679,6.000,
1.670,-0.052,0.849,0.057,0.019,-0.169,-0.006,-1.305,0.326,-9.662,2.000,
1.675,-0.062,0.890,0.061,0.019,-0.167,-0.006,-1.279,0.281,-9.695,2.000,
1.677,-0.064,0.898,0.061,0.019,-0.165,-0.006,-1.273,0.261,-9.714,2.000,
1.679,-0.068,0.912,0.060,0.019,-0.164,-0.005,-1.276,0.243,-9.732,2.000,
1.681,-0.070,0.918,0.059,0.018,-0.162,-0.005,-1.279,0.223,-9.751,2.000,
1.683,-0.073,0.926,0.056,0.018,-0.160,-0.005,-1.278,0.201,-9.770,6.000,
1.685,-0.075,0.928,0.055,0.018,-0.158,-0.005,-1.271,0.180,-9.799,2.000,
1.687,-0.077,0.931,0.051,0.018,-0.156,-0.005,-1.261,0.163,-9.832,2.000,
1.689,-0.078,0.932,0.049,0.018,-0.154,-0.005,-1.256,0.151,-9.869,2.000,
1.691,-0.080,0.931,0.043,0.018,-0.153,-0.005,-1.250,0.145,-9.905,2.000,
1.693,-0.080,0.930,0.040,0.018,-0.151,-0.005,-1.242,0.139,-9.945,6.000,
1.695,-0.079,0.928,0.034,0.017,-0.149,-0.005,-1.232,0.140,-9.996,2.000,
1.697,-0.077,0.926,0.031,0.017,-0.147,-0.005,-1.218,0.144,-10.040,2.000,
1.701,-0.069,0.922,0.023,0.017,-0.145,-0.005,-1.168,0.149,-10.123,2.000,
1.703,-0.065,0.921,0.021,0.017,-0.143,-0.004,-1.139,0.141,-10.153,6.000,
1.705,-0.057,0.920,0.017,0.017,-0.141,-0.004,-1.114,0.126,-10.161,2.000,
1.707,-0.052,0.919,0.015,0.017,-0.140,-0.004,-1.093,0.117,-10.149,2.000,
1.709,-0.042,0.921,0.010,0.017,-0.138,-0.004,-1.071,0.115,-10.132,2.000,
1.711,-0.037,0.922,0.007,0.016,-0.136,-0.004,-1.051,0.114,-10.116,2.000,
1.713,-0.025,0.928,0.002,0.016,-0.134,-0.004,-1.034,0.114,-10.107,2.000,
1.715,-0.020,0.932,0.000,0.016,-0.132,-0.004,-1.026,0.115,-10.110,6.000,
1.717,-0.009,0.942,-0.004,0.016,-0.130,-0.004,-1.028,0.118,-10.111,2.000,
1.719,0.003,0.955,-0.006,0.016,-0.128,-0.004,-1.030,0.129,-10.103,2.000,
1.721,0.009,0.962,-0.008,0.016,-0.127,-0.004,-1.044,0.148,-10.081,2.000,
1.723,0.015,0.969,-0.008,0.016,-0.125,-0.004,-1.064,0.166,-10.051,2.000,
1.728,0.036,1.001,-0.010,0.016,-0.123,-0.004,-1.108,0.190,-10.019,2.000,
1.730,0.040,1.009,-0.009,0.016,-0.121,-0.004,-1.111,0.186,-10.011,2.000,
1.732,0.048,1.025,-0.009,0.017,-0.119,-0.004,-1.102,0.172,-9.994,3.000,
1.734,0.051,1.033,-0.009,0.017,-0.117,-0.004,-1.083,0.152,-9.990,2.000,
1.736,0.055,1.049,-0.010,0.017,-0.115,-0.004,-1.057,0.122,-9.994,2.000,
1.738,0.057,1.058,-0.010,0.017,-0.112,-0.004,-1.027,0.092,-9.987,2.000,
1.740,0.057,1.066,-0.011,0.017,-0.110,-0.004,-0.998,0.064,-9.965,2.000,
1.742,0.058,1.084,-0.014,0.017,-0.108,-0.005,-0.977,0.040,-9.939,2.000,
1.744,0.058,1.092,-0.016,0.017,-0.106,-0.005,-0.965,0.028,-9.914,3.000,
1.746,0.059,1.109,-0.020,0.017,-0.104,-0.005,-0.954,0.027,-9.893,2.000,
1.748,0.060,1.117,-0.022,0.017,-0.102,-0.005,-0.935,0.027,-9.878,2.000,
1.752,0.062,1.140,-0.029,0.018,-0.099,-0.005,-0.865,0.044,-9.839,2.000,
1.754,0.065,1.153,-0.035,0.018,-0.097,-0.005,-0.814,0.068,-9.778,2.000,
1.756,0.066,1.158,-0.039,0.018,-0.095,-0.005,-0.801,0.078,-9.751,3.000,
1.758,0.068,1.166,-0.044,0.018,-0.092,-0.005,-0.785,0.091,-9.689,2.000,
1.760,0.070,1.169,-0.047,0.018,-0.090,-0.005,-0.772,0.099,-9.634,2.000,
1.762,0.071,1.172,-0.051,0.018,-0.088,-0.005,-0.752,0.128,-9.584,2.000,
1.764,0.072,1.172,-0.052,0.018,-0.085,-0.005,-0.744,0.138,-9.569,3.000,
1.766,0.073,1.171,-0.053,0.019,-0.083,-0.005,-0.722,0.156,-9.536,2.000,
1.768,0.072,1.165,-0.053,0.019,-0.081,-0.005,-0.691,0.169,-9.499,2.000,
1.770,0.071,1.160,-0.053,0.019,-0.078,-0.005,-0.654,0.177,-9.468,2.000,
1.772,0.068,1.146,-0.052,0.019,-0.076,-0.006,-0.617,0.177,-9.453,3.000,
1.774,0.065,1.130,-0.051,0.019,-0.074,-0.006,-0.556,0.168,-9.429,2.000,
1.779,0.061,1.102,-0.049,0.019,-0.072,-0.006,-0.472,0.163,-9.385,2.000,
1.781,0.060,1.092,-0.049,0.019,-0.069,-0.006,-0.449,0.166,-9.370,2.000,
1.783,0.057,1.071,-0.046,0.019,-0.067,-0.006,-0.432,0.169,-9.346,3.000,
1.785,0.055,1.060,-0.045,0.020,-0.065,-0.006,-0.414,0.173,-9.329,2.000,
1.787,0.051,1.038,-0.043,0.020,-0.063,-0.006,-0.403,0.172,-9.327,2.000,
1.789,0.050,1.028,-0.042,0.020,-0.061,-0.006,-0.388,0.168,-9.332,2.000,
1.791,0.048,1.019,-0.042,0.020,-0.059,-0.006,-0.367,0.166,-9.339,2.000,
1.793,0.045,1.003,-0.042,0.020,-0.057,-0.006,-0.335,0.162,-9.335,2.000,
1.795,0.044,0.997,-0.043,0.020,-0.055,-0.006,-0.288,0.158,-9.335,3.000,
1.797,0.042,0.990,-0.045,0.020,-0.053,-0.007,-0.238,0.161,-9.341,2.000,
1.799,0.042,0.988,-0.046,0.020,-0.051,-0.007,-0.184,0.169,-9.342,2.000,
1.803,0.041,0.992,-0.049,0.020,-0.049,-0.007,-0.084,0.192,-9.339,2.000,
1.805,0.040,0.997,-0.051,0.020,-0.047,-0.007,-0.033,0.222,-9.373,2.000,
1.807,0.040,1.005,-0.052,0.021,-0.045,-0.007,-0.000,0.237,-9.408,2.000,
1.809,0.041,1.009,-0.053,0.021,-0.043,-0.007,0.037,0.247,-9.435,3.000,
1.811,0.042,1.013,-0.054,0.021,-0.041,-0.007,0.054,0.250,-9.444,2.000,
1.813,0.044,1.023,-0.055,0.021,-0.039,-0.007,0.078,0.255,-9.453,2.000,
1.815,0.045,1.027,-0.055,0.021,-0.037,-0.007,0.091,0.266,-9.450,2.000,
1.817,0.043,1.036,-0.055,0.021,-0.035,-0.007,0.100,0.281,-9.441,2.000,
1.819,0.041,1.040,-0.055,0.021,-0.033,-0.008,0.102,0.305,-9.435,2.000,
1.821,0.037,1.047,-0.055,0.021,-0.030,-0.008,0.094,0.331,-9.414,3.000,
1.823,0.034,1.050,-0.056,0.021,-0.028,-0.008,0.091,0.336,-9.402,2.000,
1.825,0.027,1.055,-0.056,0.021,-0.026,-0.008,0.092,0.350,-9.349,2.000,
1.830,0.012,1.055,-0.055,0.021,-0.024,-0.008,0.101,0.350,-9.286,2.000,
1.832,0.001,1.052,-0.052,0.021,-0.022,-0.008,0.102,0.340,-9.261,2.000,
1.834,-0.005,1.049,-0.051,0.021,-0.020,-0.008,0.105,0.327,-9.249,2.000,
1.836,-0.011,1.045,-0.049,0.021,-0.018,-0.008,0.112,0.304,-9.236,2.000,
1.838,-0.022,1.035,-0.046,0.021,-0.016,-0.008,0.123,0.285,-9.209,2.000,
1.840,-0.028,1.028,-0.044,0.021,-0.014,-0.009,0.139,0.265,-9.166,2.000,
1.842,-0.036,1.013,-0.042,0.021,-0.012,-0.009,0.153,0.243,-9.121,2.000,
1.844,-0.040,1.005,-0.041,0.021,-0.010,-0.009,0.167,0.223,-9.082,2.000,
1.846,-0.048,0.987,-0.040,0.021,-0.008,-0.009,0.182,0.205,-9.058,2.000,
1.848,-0.051,0.978,-0.040,0.021,-0.006,-0.009,0.197,0.173,-9.055,2.000,
1.850,-0.058,0.957,-0.039,0.021,-0.004,-0.009,0.209,0.147,-9.071,2.000,
1.852,-0.061,0.945,-0.039,0.021,-0.002,-0.009,0.218,0.131,-9.105,2.000,
1.856,-0.068,0.911,-0.039,0.021,0.000,-0.009,0.223,0.134,-9.195,6.000,
1.858,-0.069,0.888,-0.039,0.020,0.002,-0.009,0.230,0.147,-9.259,2.000,
1.860,-0.069,0.876,-0.039,0.020,0.004,-0.009,0.234,0.147,-9.278,2.000,
1.862,-0.069,0.865,-0.039,0.020,0.005,-0.009,0.248,0.141,-9.316,2.000,
1.864,-0.067,0.845,-0.039,0.020,0.007,-0.009,0.267,0.130,-9.356,2.000,
1.866,-0.065,0.836,-0.038,0.020,0.009,-0.010,0.288,0.124,-9.390,6.000,
1.868,-0.060,0.820,-0.037,0.020,0.011,-0.010,0.311,0.128,-9.408,2.000,
1.870,-0.058,0.813,-0.037,0.020,0.012,-0.010,0.336,0.145,-9.426,2.000,
1.872,-0.053,0.802,-0.038,0.020,0.014,-0.010,0.369,0.171,-9.453,2.000,
1.874,-0.051,0.797,-0.037,0.019,0.015,-0.010,0.406,0.199,-9.481,6.000,
1.876,-0.047,0.789,-0.036,0.019,0.017,-0.010,0.470,0.244,-9.523,2.000,
1.881,-0.043,0.783,-0.035,0.019,0.019,-0.010,0.548,0.308,-9.574,2.000,
1.883,-0.040,0.780,-0.034,0.019,0.020,-0.010,0.581,0.334,-9.604,2.000,
1.885,-0.039,0.779,-0.033,0.019,0.022,-0.010,0.604,0.359,-9.631,2.000,
1.887,-0.036,0.778,-0.031,0.019,0.023,-0.010,0.620,0.387,-9.647,2.000,
1.889,-0.035,0.777,-0.029,0.019,0.025,-0.010,0.630,0.399,-9.637,2.000,
1.891,-0.034,0.776,-0.027,0.019,0.026,-0.010,0.640,0.397,-9.615,6.000,
1.893,-0.032,0.774,-0.024,0.019,0.028,-0.010,0.649,0.385,-9.596,2.000,
1.895,-0.032,0.773,-0.022,0.019,0.030,-0.010,0.664,0.368,-9.600,2.000,
1.897,-0.030,0.772,-0.018,0.019,0.031,-0.010,0.679,0.348,-9.615,2.000,
1.899,-0.028,0.771,-0.016,0.019,0.033,-0.010,0.695,0.330,-9.628,2.000,
1.901,-0.023,0.771,-0.010,0.019,0.034,-0.010,0.707,0.305,-9.633,2.000,
1.903,-0.020,0.771,-0.007,0.019,0.036,-0.011,0.717,0.274,-9.634,2.000,
1.907,-0.014,0.773,0.002,0.019,0.037,-0.011,0.768,0.240,-9.607,2.000,
1.909,-0.012,0.776,0.007,0.019,0.039,-0.011,0.805,0.230,-9.586,2.000,
1.911,-0.012,0.779,0.011,0.018,0.040,-0.011,0.856,0.225,-9.541,2.000,
1.913,-0.013,0.780,0.013,0.018,0.042,-0.010,0.872,0.223,-9.529,2.000,
1.915,-0.017,0.780,0.017,0.018,0.043,-0.010,0.917,0.207,-9.496,2.000,
1.917,-0.020,0.779,0.019,0.018,0.045,-0.010,0.930,0.200,-9.486,2.000,
1.919,-0.028,0.777,0.023,0.018,0.047,-0.010,0.953,0.178,-9.469,2.000,
1.921,-0.028,0.777,0.023,0.018,0.048,-0.010,0.955,0.173,-9.465,6.000,
1.923,-0.037,0.773,0.028,0.018,0.050,-0.010,0.957,0.166,-9.457,2.000,
1.925,-0.041,0.771,0.030,0.018,0.051,-0.010,0.951,0.160,-9.441,2.000,
1.927,-0.050,0.765,0.032,0.018,0.053,-0.010,0.944,0.157,-9.406,2.000,
1.929,-0.060,0.755,0.033,0.018,0.054,-0.010,0.943,0.158,-9.376,2.000,
1.934,-0.075,0.735,0.032,0.018,0.056,-0.010,0.935,0.146,-9.307,2.000,
1.936,-0.080,0.726,0.031,0.018,0.057,-0.010,0.920,0.127,-9.283,2.000,
1.938,-0.090,0.706,0.028,0.018,0.059,-0.010,0.903,0.109,-9.262,6.000,
1.940,-0.094,0.695,0.026,0.017,0.060,-0.010,0.888,0.089,-9.257,2.000,
1.942,-0.102,0.670,0.022,0.017,0.062,-0.010,0.872,0.064,-9.255,2.000,
1.944,-0.104,0.657,0.020,0.017,0.063,-0.010,0.865,0.040,-9.252,6.000,
1.946,-0.107,0.628,0.015,0.017,0.064,-0.010,0.872,0.021,-9.254,2.000,
1.948,-0.108,0.613,0.012,0.017,0.065,-0.010,0.887,0.000,-9.263,2.000,
1.950,-0.107,0.583,0.005,0.016,0.067,-0.010,0.905,-0.013,-9.276,6.000,
1.952,-0.106,0.568,0.001,0.016,0.068,-0.010,0.927,-0.016,-9.283,2.000,
1.954,-0.102,0.541,-0.008,0.016,0.069,-0.010,0.941,-0.016,-9.296,2.000,
1.958,-0.096,0.516,-0.016,0.016,0.070,-0.010,0.967,0.002,-9.357,6.000,
1.960,-0.088,0.494,-0.023,0.016,0.071,-0.010,0.973,0.031,-9.389,2.000,
1.962,-0.080,0.476,-0.030,0.015,0.072,-0.010,0.973,0.064,-9.396,6.000,
1.964,-0.076,0.468,-0.034,0.015,0.073,-0.010,0.973,0.081,-9.394,2.000,
1.966,-0.067,0.452,-0.039,0.015,0.074,-0.010,0.963,0.131,-9.375,2.000,
1.968,-0.062,0.445,-0.042,0.015,0.075,-0.010,0.959,0.146,-9.367,2.000,
1.970,-0.057,0.437,-0.044,0.015,0.076,-0.010,0.954,0.172,-9.350,6.000,
1.972,-0.048,0.421,-0.048,0.015,0.077,-0.010,0.942,0.200,-9.308,2.000,
1.974,-0.043,0.412,-0.049,0.015,0.078,-0.010,0.937,0.203,-9.289,2.000,
1.976,-0.033,0.390,-0.053,0.015,0.078,-0.010,0.935,0.210,-9.246,2.000,
1.978,-0.029,0.379,-0.054,0.014,0.079,-0.010,0.939,0.215,-9.194,2.000,
1.980,-0.019,0.352,-0.056,0.014,0.080,-0.011,0.947,0.228,-9.127,6.000,
1.986,-0.004,0.289,-0.056,0.014,0.081,-0.011,0.969,0.275,-8.903,2.000,
1.988,-0.001,0.270,-0.056,0.014,0.081,-0.011,0.965,0.294,-8.832,2.000,
1.990,0.002,0.231,-0.053,0.014,0.082,-0.011,0.959,0.302,-8.769,2.000,
1.992,0.003,0.210,-0.052,0.014,0.082,-0.011,0.953,0.298,-8.717,2.000,
1.994,0.003,0.165,-0.048,0.014,0.083,-0.011,0.941,0.289,-8.681,0.000,
1.996,0.002,0.142,-0.046,0.014,0.083,-0.011,0.934,0.279,-8.680,2.000,
1.998,0.002,0.118,-0.045,0.014,0.083,-0.011,0.930,0.272,-8.723,2.000,
2.000,0.001,0.069,-0.042,0.014,0.083,-0.011,0.933,0.268,-8.802,2.000,
2.002,0.001,0.045,-0.040,0.014,0.084,-0.011,0.937,0.267,-8.891,0.000,
2.004,0.001,0.000,-0.037,0.014,0.084,-0.012,0.945,0.265,-8.971,0.000,
2.006,0.002,-0.021,-0.035,0.014,0.084,-0.012,0.966,0.263,-9.055,2.000,
2.008,0.003,-0.060,-0.033,0.014,0.084,-0.012,0.990,0.261,-9.136,0.000,
2.012,0.008,-0.111,-0.032,0.014,0.084,-0.012,1.045,0.288,-9.299,0.000,
2.014,0.010,-0.126,-0.032,0.014,0.083,-0.012,1.061,0.297,-9.344,0.000,
2.016,0.014,-0.153,-0.032,0.014,0.083,-0.012,1.098,0.316,-9.428,8.000,
2.018,0.017,-0.165,-0.032,0.014,0.083,-0.012,1.143,0.329,-9.502,0.000,
2.020,0.023,-0.187,-0.031,0.015,0.082,-0.012,1.193,0.339,-9.559,8.000,
2.022,0.028,-0.206,-0.030,0.015,0.082,-0.012,1.245,0.352,-9.595,1.000,
2.024,0.031,-0.216,-0.028,0.015,0.082,-0.012,1.289,0.356,-9.616,8.000,
2.026,0.035,-0.233,-0.024,0.015,0.081,-0.012,1.324,0.355,-9.639,8.000,
2.028,0.038,-0.241,-0.022,0.015,0.081,-0.012,1.336,0.351,-9.652,8.000,
2.030,0.043,-0.258,-0.017,0.015,0.080,-0.012,1.348,0.328,-9.677,0.000,
2.032,0.043,-0.258,-0.017,0.015,0.080,-0.012,1.347,0.316,-9.682,8.000,
2.037,0.053,-0.291,-0.002,0.015,0.079,-0.012,1.293,0.264,-9.705,8.000,
2.039,0.057,-0.309,0.006,0.015,0.079,-0.012,1.255,0.250,-9.706,9.000,
2.041,0.060,-0.319,0.011,0.015,0.078,-0.012,1.209,0.242,-9.712,8.000,
2.043,0.062,-0.330,0.015,0.015,0.077,-0.012,1.159,0.237,-9.720,8.000,
2.045,0.066,-0.354,0.021,0.015,0.077,-0.012,1.109,0.230,-9.722,8.000,
2.047,0.069,-0.367,0.023,0.016,0.076,-0.012,1.062,0.224,-9.715,8.000,
2.049,0.073,-0.395,0.027,0.016,0.075,-0.012,1.028,0.216,-9.711,9.000,
2.051,0.076,-0.410,0.028,0.016,0.075,-0.012,1.007,0.207,-9.716,8.000,
2.053,0.080,-0.440,0.031,0.016,0.074,-0.012,0.990,0.199,-9.733,8.000,
2.055,0.082,-0.456,0.032,0.016,0.073,-0.012,0.976,0.194,-9.752,9.000,
2.057,0.086,-0.488,0.036,0.016,0.072,-0.012,0.963,0.191,-9.765,8.000,
2.059,0.087,-0.504,0.038,0.017,0.071,-0.012,0.951,0.189,-9.771,8.000,
2.063,0.091,-0.553,0.043,0.017,0.070,-0.012,0.931,0.177,-9.764,9.000,
2.065,0.093,-0.587,0.045,0.017,0.069,-0.012,0.924,0.160,-9.759,8.000,
2.067,0.096,-0.620,0.045,0.017,0.068,-0.012,0.903,0.147,-9.741,8.000,
2.069,0.096,-0.620,0.045,0.017,0.066,-0.012,0.895,0.145,-9.733,9.000,
2.071,0.098,-0.653,0.045,0.017,0.065,-0.011,0.864,0.135,-9.710,8.000,
2.073,0.100,-0.669,0.045,0.018,0.064,-0.011,0.853,0.133,-9.701,9.000,
2.075,0.103,-0.700,0.046,0.018,0.063,-0.011,0.834,0.126,-9.675,8.000,
2.077,0.105,-0.715,0.046,0.018,0.061,-0.011,0.806,0.121,-9.635,8.000,
2.079,0.108,-0.744,0.046,0.018,0.060,-0.011,0.757,0.121,-9.555,9.000,
2.081,0.109,-0.758,0.046,0.019,0.058,-0.011,0.742,0.120,-9.522,8.000,
2.083,0.112,-0.785,0.046,0.019,0.057,-0.011,0.715,0.118,-9.456,9.000,
2.088,0.115,-0.824,0.045,0.019,0.055,-0.011,0.676,0.093,-9.348,8.000,
2.090,0.115,-0.850,0.044,0.019,0.053,-0.011,0.663,0.082,-9.307,9.000,
2.092,0.114,-0.863,0.044,0.019,0.052,-0.011,0.648,0.072,-9.271,8.000,
2.094,0.113,-0.889,0.043,0.020,0.050,-0.011,0.635,0.069,-9.238,9.000,
2.096,0.112,-0.903,0.042,0.020,0.048,-0.010,0.626,0.069,-9.216,8.000,
2.098,0.110,-0.930,0.040,0.020,0.046,-0.010,0.624,0.075,-9.210,9.000,
2.100,0.109,-0.944,0.039,0.020,0.045,-0.010,0.621,0.085,-9.226,8.000,
2.102,0.108,-0.958,0.038,0.021,0.043,-0.010,0.613,0.100,-9.253,8.000,
2.104,0.106,-0.984,0.037,0.021,0.041,-0.010,0.601,0.117,-9.287,9.000,
2.106,0.104,-0.996,0.038,0.021,0.039,-0.010,0.585,0.128,-9.329,8.000,
2.108,0.100,-1.018,0.038,0.021,0.037,-0.010,0.564,0.134,-9.380,9.000,
2.110,0.098,-1.027,0.039,0.021,0.035,-0.010,0.544,0.136,-9.426,8.000,
2.114,0.091,-1.046,0.039,0.022,0.033,-0.010,0.496,0.132,-9.527,9.000,
2.116,0.086,-1.051,0.038,0.022,0.031,-0.010,0.472,0.133,-9.579,8.000,
2.118,0.083,-1.051,0.038,0.022,0.029,-0.010,0.462,0.138,-9.625,9.000,
2.120,0.077,-1.047,0.036,0.022,0.026,-0.010,0.466,0.172,-9.668,8.000,
2.122,0.074,-1.042,0.036,0.022,0.024,-0.009,0.467,0.189,-9.676,8.000,
2.124,0.068,-1.028,0.036,0.022,0.022,-0.009,0.469,0.241,-9.686,9.000,
2.126,0.064,-1.020,0.036,0.023,0.020,-0.009,0.466,0.257,-9.684,8.000,
2.128,0.056,-1.001,0.036,0.023,0.018,-0.009,0.456,0.287,-9.669,8.000,
2.130,0.051,-0.991,0.036,0.023,0.016,-0.009,0.450,0.312,-9.638,9.000,
2.132,0.047,-0.980,0.036,0.023,0.014,-0.009,0.453,0.329,-9.593,8.000,
2.134,0.038,-0.958,0.036,0.023,0.012,-0.009,0.459,0.335,-9.544,8.000,
2.136,0.030,-0.935,0.036,0.023,0.010,-0.009,0.464,0.327,-9.482,8.000,
2.141,0.020,-0.900,0.036,0.023,0.008,-0.009,0.460,0.281,-9.401,8.000,
2.143,0.018,-0.889,0.036,0.023,0.007,-0.009,0.456,0.247,-9.364,9.000,
2.145,0.014,-0.869,0.034,0.023,0.005,-0.009,0.444,0.219,-9.335,8.000,
2.147,0.012,-0.860,0.033,0.023,0.003,-0.009,0.422,0.203,-9.306,8.000,
2.149,0.010,-0.843,0.030,0.023,0.001,-0.009,0.395,0.193,-9.278,8.000,
2.151,0.010,-0.835,0.029,0.023,-0.000,-0.009,0.363,0.187,-9.264,8.000,
2.153,0.011,-0.822,0.026,0.023,-0.002,-0.009,0.322,0.183,-9.264,8.000,
2.155,0.012,-0.816,0.025,0.023,-0.004,-0.008,0.282,0.178,-9.268,8.000,
2.157,0.012,-0.811,0.024,0.023,-0.005,-0.008,0.249,0.181,-9.269,8.000,
2.159,0.013,-0.803,0.022,0.023,-0.007,-0.008,0.225,0.189,-9.271,8.000,
2.161,0.013,-0.799,0.021,0.023,-0.008,-0.008,0.200,0.198,-9.270,8.000,
2.165,0.011,-0.799,0.020,0.023,-0.010,-0.008,0.150,0.213,-9.239,8.000,
2.167,0.008,-0.802,0.020,0.023,-0.012,-0.008,0.118,0.237,-9.228,8.000,
2.169,0.004,-0.808,0.022,0.023,-0.013,-0.008,0.082,0.270,-9.222,8.000,
2.171,0.001,-0.811,0.023,0.023,-0.015,-0.008,0.076,0.278,-9.224,8.000,
2.173,-0.002,-0.815,0.024,0.023,-0.016,-0.008,0.062,0.288,-9.232,9.000,
2.175,-0.009,-0.823,0.027,0.023,-0.018,-0.008,0.044,0.289,-9.247,8.000,
2.177,-0.016,-0.832,0.031,0.023,-0.020,-0.008,0.023,0.287,-9.280,8.000,
2.179,-0.019,-0.836,0.033,0.023,-0.021,-0.008,0.008,0.279,-9.319,8.000,
2.181,-0.023,-0.841,0.036,0.023,-0.023,-0.008,0.004,0.272,-9.345,8.000,
2.183,-0.028,-0.850,0.040,0.023,-0.025,-0.008,-0.006,0.258,-9.409,8.000,
2.185,-0.030,-0.854,0.041,0.023,-0.026,-0.008,-0.015,0.252,-9.489,8.000,
2.187,-0.033,-0.863,0.045,0.023,-0.028,-0.008,-0.019,0.248,-9.569,8.000,
2.192,-0.032,-0.873,0.051,0.023,-0.030,-0.008,-0.028,0.232,-9.708,8.000,
2.194,-0.028,-0.879,0.056,0.023,-0.032,-0.007,-0.033,0.229,-9.726,8.000,
2.196,-0.025,-0.882,0.059,0.023,-0.033,-0.007,-0.053,0.224,-9.734,8.000,
2.198,-0.019,-0.886,0.064,0.023,-0.035,-0.007,-0.083,0.218,-9.730,12.000,
2.200,-0.016,-0.888,0.065,0.023,-0.037,-0.007,-0.109,0.206,-9.719,8.000,
2.202,-0.013,-0.890,0.066,0.023,-0.039,-0.007,-0.135,0.182,-9.704,8.000,
2.204,-0.005,-0.896,0.067,0.023,-0.040,-0.007,-0.167,0.156,-9.679,8.000,
2.206,-0.000,-0.900,0.067,0.023,-0.042,-0.007,-0.208,0.135,-9.656,8.000,
2.208,0.010,-0.908,0.066,0.023,-0.044,-0.007,-0.260,0.123,-9.639,8.000,
2.210,0.014,-0.913,0.065,0.023,-0.046,-0.006,-0.311,0.125,-9.620,8.000,
2.212,0.022,-0.924,0.063,0.023,-0.048,-0.006,-0.352,0.125,-9.604,8.000,
2.214,0.024,-0.930,0.062,0.023,-0.050,-0.006,-0.385,0.119,-9.585,8.000,
2.218,0.028,-0.950,0.059,0.023,-0.051,-0.006,-0.430,0.096,-9.545,8.000,
2.220,0.028,-0.964,0.057,0.023,-0.053,-0.006,-0.442,0.091,-9.524,8.000,
2.222,0.028,-0.978,0.055,0.023,-0.055,-0.006,-0.449,0.096,-9.497,8.000,
2.224,0.028,-0.978,0.055,0.023,-0.057,-0.006,-0.451,0.105,-9.485,8.000,
2.226,0.026,-0.994,0.054,0.023,-0.059,-0.006,-0.450,0.124,-9.470,8.000,
2.228,0.024,-1.002,0.053,0.023,-0.061,-0.005,-0.448,0.131,-9.463,9.000,
2.230,0.020,-1.017,0.054,0.023,-0.063,-0.005,-0.444,0.119,-9.470,8.000,
2.232,0.018,-1.025,0.054,0.023,-0.065,-0.005,-0.441,0.111,-9.476,8.000,
2.234,0.014,-1.039,0.054,0.023,-0.067,-0.005,-0.443,0.093,-9.487,8.000,
2.236,0.012,-1.044,0.054,0.023,-0.069,-0.005,-0.458,0.068,-9.493,8.000,
2.238,0.010,-1.050,0.054,0.024,-0.071,-0.005,-0.468,0.055,-9.501,8.000,
2.243,0.006,-1.064,0.053,0.024,-0.073,-0.005,-0.542,0.030,-9.525,8.000,
2.245,0.005,-1.072,0.052,0.024,-0.076,-0.005,-0.576,0.027,-9.517,8.000,
2.247,0.005,-1.075,0.051,0.024,-0.078,-0.005,-0.612,0.027,-9.512,8.000,
2.249,0.003,-1.082,0.051,0.024,-0.080,-0.005,-0.648,0.031,-9.522,8.000,
2.251,0.003,-1.086,0.050,0.024,-0.082,-0.004,-0.673,0.045,-9.544,8.000,
2.253,0.002,-1.091,0.050,0.024,-0.084,-0.004,-0.692,0.067,-9.580,8.000,
2.255,0.001,-1.092,0.050,0.024,-0.086,-0.004,-0.710,0.099,-9.627,8.000,
2.257,0.001,-1.092,0.049,0.024,-0.089,-0.004,-0.726,0.132,-9.682,8.000,
2.259,-0.001,-1.091,0.049,0.024,-0.091,-0.004,-0.744,0.167,-9.743,8.000,
2.261,-0.003,-1.085,0.049,0.024,-0.093,-0.004,-0.760,0.194,-9.807,8.000,
2.263,-0.004,-1.081,0.050,0.024,-0.095,-0.004,-0.766,0.217,-9.873,8.000,
2.265,-0.005,-1.076,0.051,0.024,-0.097,-0.004,-0.763,0.232,-9.933,8.000,
2.269,-0.006,-1.055,0.053,0.024,-0.099,-0.004,-0.732,0.239,-10.058,8.000,
2.271,-0.004,-1.037,0.053,0.024,-0.102,-0.003,-0.706,0.235,-10.121,8.000,
2.273,-0.002,-1.015,0.052,0.024,-0.104,-0.003,-0.659,0.234,-10.172,8.000,
2.275,0.000,-1.002,0.052,0.024,-0.106,-0.003,-0.631,0.230,-10.179,8.000,
2.277,0.002,-0.974,0.052,0.024,-0.108,-0.003,-0.605,0.221,-10.181,8.000,
2.279,0.003,-0.959,0.053,0.024,-0.110,-0.003,-0.592,0.215,-10.181,8.000,
2.281,0.000,-0.927,0.055,0.024,-0.111,-0.003,-0.575,0.192,-10.159,9.000,
2.283,-0.003,-0.911,0.056,0.024,-0.113,-0.003,-0.581,0.183,-10.150,8.000,
2.285,-0.006,-0.894,0.057,0.024,-0.115,-0.003,-0.604,0.168,-10.132,8.000,
2.287,-0.013,-0.861,0.057,0.024,-0.117,-0.003,-0.663,0.155,-10.093,8.000,
2.289,-0.016,-0.845,0.057,0.024,-0.119,-0.003,-0.687,0.158,-10.072,8.000,
2.291,-0.019,-0.830,0.056,0.024,-0.120,-0.002,-0.737,0.165,-10.018,8.000,
2.296,-0.026,-0.771,0.053,0.023,-0.122,-0.002,-0.818,0.192,-9.872,8.000,
2.298,-0.028,-0.758,0.053,0.023,-0.124,-0.002,-0.823,0.211,-9.815,8.000,
2.300,-0.031,-0.735,0.053,0.023,-0.125,-0.002,-0.823,0.234,-9.752,8.000,
2.302,-0.033,-0.726,0.054,0.023,-0.127,-0.002,-0.816,0.252,-9.681,8.000,
2.304,-0.037,-0.710,0.057,0.023,-0.128,-0.002,-0.809,0.264,-9.612,8.000,
2.306,-0.039,-0.705,0.059,0.023,-0.129,-0.002,-0.819,0.262,-9.556,8.000,
2.308,-0.043,-0.697,0.062,0.023,-0.131,-0.002,-0.846,0.251,-9.527,12.000,
2.310,-0.045,-0.694,0.063,0.023,-0.132,-0.002,-0.881,0.241,-9.504,8.000,
2.312,-0.047,-0.691,0.065,0.023,-0.134,-0.001,-0.914,0.229,-9.501,8.000,
2.314,-0.048,-0.690,0.066,0.023,-0.135,-0.001,-0.952,0.209,-9.502,8.000,
2.316,-0.048,-0.689,0.067,0.023,-0.136,-0.001,-0.989,0.183,-9.497,8.000,
2.320,-0.049,-0.688,0.067,0.023,-0.138,-0.001,-1.064,0.112,-9.517,12.000,
2.322,-0.050,-0.684,0.065,0.023,-0.139,-0.001,-1.134,0.068,-9.547,8.000,
2.324,-0.050,-0.684,0.065,0.022,-0.140,-0.001,-1.155,0.060,-9.559,8.000,
2.326,-0.051,-0.672,0.062,0.022,-0.142,-0.001,-1.193,0.052,-9.583,8.000,
2.328,-0.052,-0.666,0.060,0.022,-0.143,-0.000,-1.236,0.050,-9.599,8.000,
2.330,-0.053,-0.660,0.059,0.022,-0.145,-0.000,-1.255,0.044,-9.595,12.000,
2.332,-0.053,-0.647,0.057,0.022,-0.146,-0.000,-1.271,0.047,-9.585,8.000,
2.334,-0.054,-0.640,0.056,0.022,-0.147,-0.000,-1.281,0.053,-9.581,8.000,
2.336,-0.054,-0.626,0.053,0.022,-0.148,-0.000,-1.306,0.080,-9.573,8.000,
2.338,-0.054,-0.620,0.052,0.022,-0.150,0.000,-1.314,0.090,-9.563,12.000,
2.340,-0.054,-0.607,0.050,0.022,-0.151,0.000,-1.341,0.109,-9.504,8.000,
2.342,-0.055,-0.602,0.049,0.022,-0.152,0.000,-1.352,0.116,-9.482,8.000,
2.347,-0.054,-0.590,0.046,0.021,-0.153,0.000,-1.395,0.158,-9.371,8.000,
2.349,-0.053,-0.587,0.044,0.021,-0.155,0.001,-1.418,0.174,-9.322,12.000,
2.351,-0.053,-0.587,0.044,0.021,-0.156,0.001,-1.449,0.182,-9.284,8.000,
2.353,-0.051,-0.588,0.043,0.021,-0.157,0.001,-1.481,0.185,-9.256,8.000,
2.355,-0.051,-0.589,0.043,0.021,-0.158,0.001,-1.509,0.193,-9.235,8.000,
2.357,-0.050,-0.593,0.044,0.021,-0.159,0.001,-1.538,0.200,-9.234,12.000,
2.359,-0.049,-0.595,0.044,0.021,-0.160,0.001,-1.566,0.207,-9.258,8.000,
2.361,-0.048,-0.598,0.044,0.021,-0.162,0.001,-1.586,0.212,-9.296,8.000,
2.363,-0.046,-0.604,0.045,0.021,-0.163,0.001,-1.611,0.210,-9.341,8.000,
2.365,-0.045,-0.607,0.045,0.021,-0.164,0.001,-1.642,0.197,-9.383,8.000,
2.367,-0.042,-0.613,0.045,0.020,-0.165,0.001,-1.664,0.182,-9.415,12.000,
2.371,-0.036,-0.621,0.042,0.020,-0.166,0.001,-1.671,0.159,-9.474,8.000,
2.373,-0.034,-0.623,0.040,0.020,-0.168,0.001,-1.665,0.152,-9.505,8.000,
2.375,-0.028,-0.627,0.036,0.020,-0.169,0.002,-1.657,0.145,-9.528,8.000,
2.377,-0.024,-0.631,0.032,0.020,-0.170,0.002,-1.644,0.139,-9.537,8.000,
2.379,-0.021,-0.632,0.031,0.020,-0.171,0.002,-1.641,0.141,-9.540,8.000,
2.381,-0.019,-0.633,0.030,0.020,-0.173,0.002,-1.635,0.153,-9.544,12.000,
2.383,-0.017,-0.635,0.029,0.020,-0.174,0.002,-1.627,0.178,-9.552,8.000,
2.385,-0.015,-0.636,0.029,0.020,-0.175,0.002,-1.626,0.206,-9.566,8.000,
2.387,-0.014,-0.637,0.028,0.020,-0.176,0.002,-1.629,0.217,-9.571,8.000,
2.389,-0.010,-0.640,0.026,0.020,-0.178,0.002,-1.648,0.235,-9.571,8.000,
2.391,-0.004,-0.644,0.024,0.020,-0.179,0.002,-1.676,0.240,-9.550,8.000,
2.393,-0.001,-0.647,0.024,0.020,-0.180,0.002,-1.700,0.250,-9.533,8.000,
2.398,0.014,-0.660,0.023,0.020,-0.182,0.002,-1.735,0.267,-9.538,8.000,
2.400,0.017,-0.664,0.024,0.020,-0.183,0.002,-1.745,0.263,-9.556,8.000,
2.402,0.021,-0.667,0.025,0.020,-0.184,0.002,-1.748,0.256,-9.577,8.000,
2.404,0.028,-0.676,0.026,0.020,-0.186,0.002,-1.734,0.250,-9.595,8.000,
2.406,0.031,-0.681,0.026,0.020,-0.187,0.002,-1.712,0.250,-9.618,8.000,
2.408,0.038,-0.690,0.027,0.020,-0.188,0.002,-1.698,0.254,-9.639,8.000,
2.410,0.041,-0.694,0.028,0.020,-0.190,0.002,-1.686,0.251,-9.652,8.000,
2.412,0.047,-0.703,0.028,0.020,-0.191,0.002,-1.685,0.245,-9.661,8.000,
2.414,0.050,-0.706,0.028,0.020,-0.192,0.003,-1.690,0.236,-9.675,9.000,
2.416,0.054,-0.709,0.028,0.020,-0.194,0.003,-1.696,0.219,-9.694,8.000,
2.418,0.061,-0.714,0.029,0.021,-0.195,0.003,-1.704,0.200,-9.706,8.000,
2.420,0.065,-0.716,0.029,0.021,-0.197,0.003,-1.711,0.182,-9.712,8.000,
2.424,0.075,-0.718,0.029,0.021,-0.198,0.003,-1.719,0.155,-9.697,9.000,
2.426,0.082,-0.715,0.028,0.021,-0.200,0.003,-1.718,0.144,-9.687,8.000,
2.428,0.089,-0.708,0.027,0.021,-0.201,0.003,-1.706,0.133,-9.677,9.000,
2.430,0.092,-0.703,0.027,0.021,-0.202,0.003,-1.700,0.133,-9.671,8.000,
2.432,0.096,-0.691,0.026,0.022,-0.204,0.003,-1.686,0.149,-9.659,8.000,
2.434,0.098,-0.685,0.026,0.022,-0.205,0.003,-1.686,0.155,-9.658,9.000,
2.436,0.101,-0.669,0.025,0.022,-0.207,0.003,-1.695,0.161,-9.652,8.000,
2.438,0.101,-0.660,0.025,0.022,-0.208,0.003,-1.700,0.156,-9.645,9.000,
2.440,0.102,-0.651,0.024,0.022,-0.209,0.003,-1.706,0.141,-9.623,8.000,
2.442,0.101,-0.630,0.022,0.023,-0.211,0.003,-1.709,0.124,-9.592,9.000,
2.444,0.099,-0.619,0.021,0.023,-0.212,0.003,-1.713,0.106,-9.556,9.000,
2.449,0.090,-0.574,0.017,0.023,-0.213,0.003,-1.710,0.061,-9.473,8.000,
2.451,0.087,-0.563,0.017,0.023,-0.214,0.003,-1.712,0.046,-9.439,9.000,
2.453,0.077,-0.541,0.015,0.023,-0.215,0.003,-1.714,0.039,-9.402,8.000,
2.455,0.073,-0.531,0.013,0.023,-0.216,0.003,-1.721,0.037,-9.368,9.000,
2.457,0.068,-0.521,0.012,0.024,-0.217,0.003,-1.746,0.041,-9.345,8.000,
2.459,0.058,-0.501,0.009,0.024,-0.218,0.003,-1.779,0.055,-9.332,8.000,
2.461,0.053,-0.492,0.007,0.024,-0.220,0.004,-1.818,0.071,-9.333,9.000,
2.463,0.043,-0.473,0.003,0.024,-0.220,0.004,-1.866,0.088,-9.343,8.000,
2.465,0.039,-0.464,0.001,0.024,-0.221,0.004,-1.916,0.103,-9.350,8.000,
2.467,0.030,-0.447,-0.001,0.024,-0.222,0.004,-1.952,0.116,-9.351,9.000,
2.469,0.027,-0.439,-0.002,0.024,-0.223,0.004,-1.981,0.126,-9.339,8.000,
2.471,0.021,-0.422,-0.004,0.024,-0.224,0.004,-2.009,0.127,-9.318,8.000,
2.475,0.015,-0.399,-0.007,0.024,-0.225,0.004,-2.062,0.116,-9.274,8.000,
2.477,0.013,-0.392,-0.008,0.024,-0.226,0.004,-2.080,0.109,-9.256,8.000,
2.479,0.010,-0.380,-0.009,0.024,-0.227,0.003,-2.093,0.104,-9.241,8.000,
2.481,0.009,-0.374,-0.010,0.024,-0.227,0.003,-2.104,0.110,-9.234,8.000,
2.483,0.008,-0.369,-0.010,0.024,-0.228,0.003,-2.108,0.124,-9.238,9.000,
2.485,0.007,-0.359,-0.011,0.024,-0.229,0.003,-2.102,0.133,-9.250,8.000,
2.487,0.005,-0.350,-0.011,0.024,-0.230,0.003,-2.081,0.143,-9.274,8.000,
2.489,0.005,-0.346,-0.011,0.024,-0.230,0.003,-2.064,0.154,-9.295,8.000,
2.491,0.005,-0.342,-0.012,0.024,-0.231,0.003,-2.053,0.162,-9.309,8.000,
2.493,0.005,-0.334,-0.013,0.024,-0.232,0.003,-2.025,0.182,-9.359,8.000,
2.495,0.006,-0.329,-0.014,0.024,-0.232,0.003,-2.016,0.181,-9.379,8.000,
2.497,0.008,-0.320,-0.015,0.024,-0.233,0.003,-1.992,0.173,-9.433,8.000,
2.502,0.014,-0.302,-0.014,0.025,-0.234,0.003,-1.942,0.161,-9.575,8.000,
2.504,0.019,-0.287,-0.012,0.025,-0.234,0.003,-1.927,0.158,-9.633,8.000,
2.506,0.021,-0.280,-0.012,0.025,-0.235,0.003,-1.920,0.151,-9.700,8.000,
2.508,0.027,-0.263,-0.011,0.025,-0.235,0.003,-1.911,0.144,-9.759,8.000,
2.510,0.029,-0.253,-0.010,0.025,-0.236,0.003,-1.904,0.141,-9.807,8.000,
2.512,0.032,-0.243,-0.010,0.025,-0.236,0.003,-1.904,0.142,-9.846,9.000,
2.514,0.038,-0.220,-0.010,0.025,-0.237,0.003,-1.906,0.147,-9.885,8.000,
2.516,0.043,-0.196,-0.009,0.025,-0.237,0.003,-1.910,0.147,-9.923,8.000,
2.518,0.046,-0.183,-0.009,0.025,-0.238,0.003,-1.920,0.147,-9.949,8.000,
2.520,0.048,-0.170,-0.009,0.025,-0.238,0.003,-1.931,0.147,-9.959,8.000,
2.522,0.050,-0.145,-0.008,0.025,-0.238,0.003,-1.940,0.156,-9.943,9.000,
2.526,0.050,-0.107,-0.007,0.025,-0.239,0.003,-1.999,0.210,-9.863,8.000,
2.528,0.050,-0.095,-0.007,0.025,-0.239,0.003,-2.047,0.245,-9.814,8.000,
2.530,0.047,-0.072,-0.005,0.025,-0.239,0.003,-2.109,0.280,-9.760,9.000,
2.532,0.045,-0.061,-0.005,0.026,-0.239,0.003,-2.181,0.311,-9.708,8.000,
2.534,0.040,-0.043,-0.003,0.026,-0.239,0.003,-2.246,0.340,-9.658,0.000,
2.536,0.033,-0.031,-0.001,0.026,-0.239,0.003,-2.313,0.379,-9.578,8.000,
2.538,0.029,-0.028,-0.000,0.026,-0.239,0.003,-2.344,0.385,-9.526,1.000,
2.540,0.021,-0.024,0.002,0.026,-0.239,0.003,-2.371,0.382,-9.478,0.000,
2.542,0.021,-0.024,0.002,0.026,-0.240,0.003,-2.379,0.377,-9.455,8.000,
2.544,0.007,-0.028,0.005,0.026,-0.240,0.003,-2.385,0.345,-9.386,0.000,
2.546,0.007,-0.028,0.005,0.026,-0.240,0.003,-2.386,0.332,-9.362,0.000,
2.548,-0.003,-0.035,0.006,0.026,-0.240,0.003,-2.390,0.305,-9.321,8.000,
2.553,-0.018,-0.047,0.009,0.026,-0.240,0.003,-2.379,0.251,-9.302,0.000,
2.555,-0.026,-0.054,0.011,0.026,-0.240,0.003,-2.354,0.233,-9.284,0.000,
2.557,-0.030,-0.058,0.012,0.026,-0.240,0.003,-2.321,0.220,-9.259,8.000,
2.559,-0.037,-0.065,0.013,0.026,-0.240,0.003,-2.285,0.212,-9.247,0.000,
2.561,-0.040,-0.069,0.013,0.026,-0.240,0.003,-2.251,0.204,-9.246,8.000,
2.563,-0.045,-0.075,0.014,0.026,-0.240,0.003,-2.221,0.191,-9.246,0.000,
2.565,-0.047,-0.077,0.015,0.026,-0.240,0.003,-2.199,0.172,-9.246,12.000,
2.567,-0.051,-0.079,0.015,0.025,-0.241,0.003,-2.174,0.153,-9.250,0.000,
2.569,-0.053,-0.079,0.015,0.025,-0.241,0.003,-2.146,0.132,-9.265,8.000,
2.571,-0.055,-0.077,0.015,0.025,-0.241,0.003,-2.121,0.117,-9.280,0.000,
2.573,-0.056,-0.074,0.014,0.025,-0.241,0.003,-2.097,0.111,-9.294,12.000,
2.575,-0.057,-0.070,0.013,0.025,-0.241,0.003,-2.078,0.112,-9.311,8.000,
2.579,-0.056,-0.046,0.008,0.025,-0.241,0.003,-2.054,0.119,-9.316,0.000,
2.581,-0.053,-0.031,0.007,0.025,-0.241,0.003,-2.039,0.124,-9.331,12.000,
2.583,-0.053,-0.031,0.007,0.025,-0.242,0.003,-2.036,0.126,-9.339,0.000,
2.585,-0.048,-0.014,0.006,0.025,-0.242,0.003,-2.032,0.131,-9.350,0.000,
2.587,-0.045,-0.006,0.005,0.025,-0.242,0.003,-2.025,0.137,-9.361,8.000,
2.589,-0.037,0.010,0.004,0.024,-0.242,0.003,-2.022,0.144,-9.382,4.000,
2.591,-0.033,0.018,0.003,0.024,-0.242,0.003,-2.026,0.154,-9.414,0.000,
2.593,-0.024,0.033,0.002,0.024,-0.242,0.003,-2.029,0.174,-9.444,0.000,
2.595,-0.015,0.048,0.001,0.024,-0.242,0.003,-2.027,0.184,-9.440,0.000,
2.597,-0.010,0.055,0.001,0.024,-0.241,0.003,-2.028,0.187,-9.436,0.000,
2.599,-0.006,0.063,0.000,0.024,-0.241,0.003,-2.034,0.192,-9.429,0.000,
2.604,0.014,0.095,-0.002,0.024,-0.241,0.003,-2.042,0.189,-9.392,0.000,
2.606,0.018,0.103,-0.002,0.024,-0.241,0.003,-2.041,0.180,-9.382,0.000,
2.608,0.026,0.120,-0.003,0.024,-0.241,0.003,-2.038,0.170,-9.393,0.000,
2.610,0.029,0.130,-0.003,0.024,-0.241,0.003,-2.046,0.163,-9.405,3.000,
2.612,0.034,0.149,-0.004,0.024,-0.240,0.003,-2.065,0.154,-9.413,0.000,
2.614,0.036,0.160,-0.005,0.024,-0.240,0.003,-2.089,0.144,-9.411,2.000,
2.616,0.038,0.172,-0.007,0.025,-0.240,0.003,-2.112,0.136,-9.407,2.000,
2.618,0.041,0.200,-0.011,0.025,-0.239,0.003,-2.122,0.124,-9.413,0.000,
2.620,0.042,0.215,-0.012,0.025,-0.239,0.003,-2.118,0.113,-9.429,3.000,
2.622,0.040,0.247,-0.014,0.025,-0.238,0.003,-2.111,0.106,-9.448,2.000,
2.624,0.039,0.264,-0.015,0.025,-0.238,0.003,-2.108,0.113,-9.476,2.000,
2.626,0.033,0.300,-0.016,0.025,-0.237,0.003,-2.105,0.128,-9.506,2.000,
2.630,0.024,0.360,-0.018,0.025,-0.237,0.003,-2.079,0.175,-9.550,3.000,
2.632,0.017,0.402,-0.019,0.025,-0.236,0.003,-2.043,0.221,-9.561,2.000,
2.634,0.013,0.423,-0.020,0.025,-0.235,0.003,-2.032,0.234,-9.562,2.000,
2.636,0.009,0.444,-0.020,0.025,-0.234,0.003,-2.020,0.253,-9.568,2.000,
2.638,0.001,0.484,-0.019,0.025,-0.234,0.003,-2.012,0.264,-9.581,2.000,
2.640,-0.003,0.503,-0.018,0.025,-0.233,0.003,-2.006,0.268,-9.602,2.000,
2.642,-0.010,0.539,-0.017,0.025,-0.232,0.003,-2.007,0.274,-9.623,2.000,
2.644,-0.013,0.556,-0.017,0.025,-0.231,0.003,-2.006,0.276,-9.625,2.000,
2.646,-0.018,0.585,-0.018,0.025,-0.229,0.003,-1.989,0.265,-9.628,2.000,
2.648,-0.020,0.597,-0.018,0.025,-0.228,0.003,-1.979,0.259,-9.628,2.000,
2.650,-0.021,0.608,-0.018,0.025,-0.227,0.003,-1.952,0.243,-9.622,6.000,
2.655,-0.025,0.640,-0.016,0.025,-0.226,0.003,-1.907,0.230,-9.594,2.000,
2.657,-0.026,0.645,-0.015,0.025,-0.225,0.003,-1.891,0.229,-9.581,2.000,
2.659,-0.029,0.651,-0.013,0.025,-0.223,0.003,-1.880,0.229,-9.575,2.000,
2.661,-0.030,0.653,-0.012,0.025,-0.222,0.003,-1.876,0.224,-9.576,2.000,
2.663,-0.033,0.654,-0.011,0.025,-0.221,0.003,-1.876,0.211,-9.571,2.000,
2.665,-0.035,0.653,-0.010,0.025,-0.219,0.003,-1.876,0.197,-9.573,2.000,
2.667,-0.037,0.650,-0.007,0.025,-0.218,0.003,-1.870,0.184,-9.577,2.000,
2.669,-0.037,0.649,-0.006,0.025,-0.217,0.003,-1.862,0.162,-9.579,6.000,
2.671,-0.038,0.646,-0.006,0.024,-0.215,0.003,-1.847,0.135,-9.584,2.000,
2.673,-0.038,0.645,-0.005,0.024,-0.214,0.003,-1.818,0.109,-9.592,2.000,
2.675,-0.038,0.646,-0.005,0.024,-0.213,0.003,-1.781,0.087,-9.599,2.000,
2.677,-0.039,0.648,-0.006,0.024,-0.212,0.003,-1.742,0.069,-9.616,2.000,
2.681,-0.040,0.662,-0.009,0.024,-0.210,0.003,-1.675,0.056,-9.666,6.000,
2.683,-0.040,0.679,-0.011,0.024,-0.209,0.003,-1.603,0.073,-9.712,2.000,
2.685,-0.040,0.689,-0.013,0.024,-0.208,0.003,-1.573,0.083,-9.728,2.000,
2.687,-0.039,0.701,-0.014,0.024,-0.206,0.003,-1.511,0.099,-9.760,2.000,
2.689,-0.037,0.727,-0.016,0.024,-0.205,0.003,-1.421,0.111,-9.800,2.000,
2.691,-0.035,0.741,-0.017,0.024,-0.203,0.003,-1.400,0.115,-9.809,6.000,
2.693,-0.028,0.769,-0.018,0.024,-0.202,0.002,-1.375,0.119,-9.820,2.000,
2.695,-0.024,0.783,-0.019,0.024,-0.200,0.002,-1.362,0.118,-9.815,2.000,
2.697,-0.016,0.809,-0.019,0.024,-0.199,0.002,-1.355,0.116,-9.797,2.000,
2.699,-0.012,0.821,-0.019,0.024,-0.197,0.002,-1.356,0.124,-9.778,2.000,
2.701,-0.003,0.844,-0.020,0.024,-0.195,0.002,-1.355,0.133,-9.757,2.000,
2.703,0.005,0.862,-0.021,0.024,-0.194,0.002,-1.363,0.138,-9.737,2.000,
2.708,0.018,0.882,-0.024,0.024,-0.192,0.002,-1.408,0.136,-9.730,2.000,
2.710,0.022,0.887,-0.025,0.024,-0.190,0.002,-1.428,0.134,-9.722,2.000,
2.712,0.025,0.891,-0.026,0.024,-0.189,0.002,-1.446,0.135,-9.708,2.000,
2.714,0.032,0.897,-0.028,0.024,-0.187,0.002,-1.458,0.131,-9.685,3.000,
2.716,0.035,0.899,-0.029,0.024,-0.185,0.002,-1.466,0.126,-9.657,2.000,
2.718,0.041,0.902,-0.029,0.024,-0.183,0.002,-1.473,0.131,-9.646,2.000,
2.720,0.044,0.903,-0.029,0.024,-0.181,0.002,-1.477,0.137,-9.638,2.000,
2.722,0.049,0.905,-0.028,0.024,-0.180,0.002,-1.473,0.137,-9.625,3.000,
2.724,0.051,0.905,-0.028,0.024,-0.178,0.002,-1.471,0.138,-9.601,2.000,
2.726,0.054,0.906,-0.027,0.024,-0.176,0.002,-1.467,0.147,-9.578,2.000,
2.728,0.055,0.907,-0.026,0.024,-0.174,0.002,-1.465,0.157,-9.569,2.000,
2.732,0.059,0.910,-0.024,0.024,-0.172,0.002,-1.462,0.182,-9.551,3.000,
2.734,0.061,0.910,-0.023,0.025,-0.170,0.002,-1.462,0.181,-9.565,2.000,
2.736,0.062,0.911,-0.023,0.025,-0.169,0.002,-1.463,0.180,-9.576,3.000,
2.738,0.064,0.913,-0.022,0.025,-0.167,0.002,-1.455,0.190,-9.586,2.000,
2.740,0.066,0.915,-0.022,0.025,-0.165,0.001,-1.448,0.195,-9.583,2.000,
2.742,0.066,0.916,-0.021,0.025,-0.163,0.001,-1.435,0.196,-9.563,3.000,
2.745,0.067,0.921,-0.021,0.025,-0.161,0.001,-1.416,0.195,-9.522,2.000,
2.746,0.064,0.928,-0.022,0.025,-0.159,0.001,-1.381,0.200,-9.455,3.000,
2.748,0.063,0.931,-0.023,0.025,-0.158,0.001,-1.366,0.201,-9.446,2.000,
2.750,0.058,0.941,-0.027,0.026,-0.156,0.001,-1.322,0.191,-9.456,2.000,
2.752,0.054,0.946,-0.029,0.026,-0.154,0.001,-1.302,0.186,-9.478,3.000,
2.754,0.051,0.953,-0.032,0.026,-0.152,0.001,-1.291,0.184,-9.491,2.000,
2.759,0.036,0.987,-0.039,0.026,-0.150,0.001,-1.222,0.177,-9.570,2.000,
2.761,0.033,0.997,-0.040,0.026,-0.148,0.001,-1.186,0.177,-9.598,3.000,
2.763,0.026,1.016,-0.044,0.026,-0.146,0.001,-1.151,0.172,-9.608,2.000,
2.765,0.023,1.026,-0.046,0.026,-0.144,0.001,-1.115,0.169,-9.601,2.000,
2.767,0.018,1.046,-0.049,0.026,-0.142,0.001,-1.075,0.169,-9.599,2.000,
2.769,0.017,1.055,-0.051,0.026,-0.140,0.001,-1.039,0.174,-9.603,3.000,
2.771,0.016,1.064,-0.053,0.026,-0.138,0.001,-1.023,0.181,-9.604,2.000,
2.773,0.014,1.080,-0.056,0.026,-0.136,0.000,-1.005,0.191,-9.608,2.000,
2.775,0.014,1.086,-0.058,0.026,-0.134,0.000,-0.981,0.216,-9.609,2.000,
2.777,0.014,1.096,-0.061,0.026,-0.131,0.000,-0.965,0.246,-9.601,2.000,
2.779,0.015,1.099,-0.061,0.026,-0.129,0.000,-0.961,0.270,-9.589,2.000,
2.781,0.015,1.102,-0.062,0.026,-0.127,-0.000,-0.969,0.283,-9.572,2.000,
2.785,0.015,1.098,-0.061,0.026,-0.125,-0.000,-0.987,0.309,-9.521,2.000,
2.787,0.014,1.093,-0.060,0.026,-0.123,-0.000,-0.988,0.315,-9.510,3.000,
2.789,0.013,1.090,-0.059,0.026,-0.120,-0.000,-0.977,0.304,-9.518,2.000,
2.791,0.013,1.084,-0.057,0.027,-0.118,-0.001,-0.955,0.277,-9.536,2.000,
2.794,0.012,1.082,-0.056,0.027,-0.116,-0.001,-0.934,0.244,-9.556,2.000,
2.795,0.010,1.078,-0.054,0.027,-0.114,-0.001,-0.913,0.211,-9.573,2.000,
2.797,0.008,1.078,-0.053,0.027,-0.112,-0.001,-0.891,0.176,-9.588,2.000,
2.799,0.005,1.078,-0.051,0.027,-0.110,-0.001,-0.892,0.169,-9.595,2.000,
2.801,0.004,1.080,-0.051,0.027,-0.107,-0.001,-0.896,0.158,-9.616,2.000,
2.803,0.002,1.083,-0.051,0.027,-0.105,-0.001,-0.896,0.154,-9.626,2.000,
2.806,0.002,1.083,-0.051,0.027,-0.103,-0.001,-0.891,0.142,-9.654,2.000,
2.810,-0.003,1.093,-0.053,0.027,-0.101,-0.001,-0.805,0.103,-9.688,2.000,
2.812,-0.003,1.095,-0.054,0.027,-0.099,-0.001,-0.745,0.090,-9.682,2.000,
2.814,-0.003,1.095,-0.055,0.027,-0.097,-0.002,-0.686,0.080,-9.668,2.000,
2.816,-0.002,1.094,-0.056,0.027,-0.094,-0.002,-0.641,0.076,-9.651,2.000,
2.818,0.001,1.091,-0.057,0.027,-0.092,-0.002,-0.597,0.078,-9.640,2.000,
2.820,0.002,1.088,-0.058,0.027,-0.090,-0.002,-0.550,0.078,-9.632,2.000,
2.822,0.005,1.081,-0.059,0.027,-0.088,-0.002,-0.515,0.082,-9.631,3.000,
2.824,0.007,1.076,-0.060,0.027,-0.086,-0.002,-0.481,0.084,-9.624,2.000,
2.826,0.009,1.065,-0.061,0.027,-0.083,-0.002,-0.448,0.095,-9.605,2.000,
2.828,0.010,1.059,-0.061,0.027,-0.081,-0.002,-0.417,0.110,-9.584,2.000,
2.830,0.012,1.046,-0.061,0.027,-0.079,-0.003,-0.376,0.122,-9.567,2.000,
2.832,0.013,1.038,-0.061,0.027,-0.077,-0.003,-0.328,0.132,-9.531,2.000,
2.837,0.015,1.013,-0.059,0.027,-0.075,-0.003,-0.239,0.140,-9.406,2.000,
2.839,0.015,0.993,-0.058,0.027,-0.073,-0.003,-0.194,0.138,-9.336,2.000,
2.841,0.014,0.970,-0.055,0.027,-0.071,-0.003,-0.178,0.138,-9.303,2.000,
2.843,0.013,0.957,-0.053,0.027,-0.069,-0.003,-0.177,0.143,-9.280,2.000,
2.845,0.009,0.931,-0.050,0.027,-0.067,-0.003,-0.189,0.156,-9.265,2.000,
2.847,0.007,0.917,-0.048,0.027,-0.065,-0.003,-0.207,0.178,-9.250,3.000,
2.849,0.004,0.903,-0.047,0.027,-0.063,-0.003,-0.226,0.203,-9.230,2.000,
2.851,-0.001,0.873,-0.045,0.027,-0.062,-0.003,-0.238,0.213,-9.216,2.000,
2.853,-0.004,0.857,-0.044,0.027,-0.060,-0.004,-0.283,0.234,-9.186,2.000,
2.855,-0.011,0.825,-0.042,0.027,-0.058,-0.004,-0.312,0.239,-9.176,2.000,
2.857,-0.014,0.809,-0.041,0.027,-0.057,-0.004,-0.327,0.235,-9.173,2.000,
2.859,-0.021,0.776,-0.037,0.027,-0.055,-0.004,-0.332,0.237,-9.178,2.000,
2.863,-0.029,0.729,-0.031,0.027,-0.053,-0.004,-0.340,0.258,-9.253,6.000,
2.865,-0.031,0.715,-0.030,0.027,-0.052,-0.004,-0.334,0.260,-9.314,2.000,
2.867,-0.035,0.689,-0.028,0.027,-0.051,-0.004,-0.320,0.261,-9.372,2.000,
2.869,-0.037,0.677,-0.027,0.027,-0.049,-0.004,-0.297,0.261,-9.423,2.000,
2.871,-0.039,0.656,-0.025,0.027,-0.048,-0.004,-0.265,0.248,-9.471,2.000,
2.873,-0.039,0.648,-0.025,0.026,-0.046,-0.004,-0.226,0.224,-9.512,2.000,
2.875,-0.039,0.642,-0.024,0.026,-0.045,-0.004,-0.179,0.192,-9.557,6.000,
2.877,-0.038,0.633,-0.023,0.026,-0.044,-0.004,-0.122,0.158,-9.612,2.000,
2.879,-0.037,0.630,-0.023,0.026,-0.043,-0.004,-0.056,0.128,-9.677,2.000,
2.881,-0.035,0.629,-0.023,0.026,-0.041,-0.004,0.007,0.106,-9.737,2.000,
2.883,-0.034,0.629,-0.023,0.026,-0.040,-0.004,0.066,0.084,-9.778,6.000,
2.888,-0.025,0.643,-0.027,0.026,-0.039,-0.004,0.173,0.039,-9.865,2.000,
2.890,-0.022,0.649,-0.027,0.026,-0.038,-0.005,0.215,0.035,-9.907,2.000,
2.892,-0.016,0.664,-0.028,0.026,-0.036,-0.005,0.253,0.032,-9.961,2.000,
2.894,-0.013,0.672,-0.029,0.026,-0.035,-0.005,0.285,0.026,-10.015,2.000,
2.896,-0.005,0.691,-0.030,0.026,-0.034,-0.005,0.312,0.026,-10.061,2.000,
2.898,0.000,0.701,-0.030,0.026,-0.032,-0.005,0.342,0.026,-10.107,2.000,
2.900,0.011,0.721,-0.032,0.026,-0.031,-0.005,0.371,0.030,-10.149,2.000,
2.902,0.017,0.731,-0.032,0.026,-0.029,-0.005,0.398,0.042,-10.176,2.000,
2.904,0.029,0.751,-0.035,0.026,-0.028,-0.005,0.416,0.055,-10.186,2.000,
2.906,0.035,0.760,-0.036,0.026,-0.026,-0.005,0.427,0.060,-10.181,2.000,
2.908,0.048,0.778,-0.038,0.026,-0.025,-0.005,0.430,0.057,-10.157,2.000,
2.910,0.054,0.786,-0.040,0.026,-0.023,-0.005,0.421,0.052,-10.117,2.000,
2.914,0.069,0.805,-0.045,0.026,-0.022,-0.005,0.377,0.033,-10.022,3.000,
2.916,0.073,0.810,-0.047,0.026,-0.020,-0.005,0.340,0.030,-9.977,2.000,
2.918,0.081,0.817,-0.050,0.027,-0.018,-0.005,0.300,0.032,-9.936,3.000,
2.920,0.083,0.819,-0.052,0.027,-0.017,-0.006,0.271,0.033,-9.894,2.000,
2.922,0.088,0.819,-0.055,0.027,-0.015,-0.006,0.241,0.033,-9.857,3.000,
2.924,0.089,0.817,-0.057,0.027,-0.014,-0.006,0.209,0.035,-9.818,2.000,
2.926,0.090,0.811,-0.059,0.027,-0.012,-0.006,0.188,0.046,-9.771,3.000,
2.928,0.089,0.806,-0.060,0.027,-0.010,-0.006,0.172,0.066,-9.724,3.000,
2.930,0.087,0.800,-0.060,0.028,-0.009,-0.006,0.155,0.090,-9.682,2.000,
2.932,0.081,0.786,-0.058,0.028,-0.007,-0.006,0.139,0.116,-9.653,3.000,
2.934,0.076,0.778,-0.056,0.028,-0.006,-0.006,0.127,0.139,-9.624,2.000,
2.939,0.054,0.740,-0.048,0.028,-0.004,-0.006,0.127,0.157,-9.548,3.000,
2.941,0.040,0.720,-0.044,0.028,-0.002,-0.007,0.149,0.139,-9.482,3.000,
2.943,0.033,0.710,-0.042,0.028,-0.001,-0.007,0.168,0.106,-9.444,2.000,
2.945,0.025,0.700,-0.040,0.028,0.000,-0.007,0.182,0.067,-9.415,2.000,
2.947,0.007,0.681,-0.036,0.028,0.002,-0.007,0.199,0.031,-9.400,3.000,
2.949,-0.002,0.672,-0.035,0.028,0.003,-0.007,0.223,-0.001,-9.405,2.000,
2.951,-0.020,0.657,-0.034,0.028,0.004,-0.007,0.244,-0.020,-9.420,2.000,
2.953,-0.029,0.650,-0.034,0.028,0.006,-0.007,0.272,-0.024,-9.438,2.000,
2.955,-0.046,0.641,-0.037,0.028,0.007,-0.007,0.308,-0.024,-9.455,2.000,
2.957,-0.054,0.639,-0.040,0.028,0.008,-0.007,0.353,-0.018,-9.483,6.000,
2.959,-0.069,0.636,-0.044,0.028,0.010,-0.007,0.401,-0.005,-9.521,2.000,
2.961,-0.075,0.637,-0.047,0.028,0.011,-0.007,0.455,0.009,-9.568,2.000,
2.965,-0.089,0.645,-0.054,0.028,0.012,-0.007,0.538,0.037,-9.653,6.000,
2.967,-0.092,0.650,-0.056,0.028,0.013,-0.007,0.572,0.060,-9.689,2.000,
2.969,-0.095,0.661,-0.061,0.028,0.015,-0.008,0.614,0.082,-9.731,6.000,
2.971,-0.097,0.667,-0.063,0.027,0.016,-0.008,0.654,0.094,-9.763,2.000,
2.973,-0.097,0.679,-0.066,0.027,0.017,-0.008,0.683,0.099,-9.769,6.000,
2.975,-0.097,0.686,-0.068,0.027,0.019,-0.008,0.699,0.109,-9.753,6.000,
2.977,-0.094,0.698,-0.070,0.027,0.020,-0.008,0.708,0.122,-9.734,2.000,
2.979,-0.092,0.703,-0.070,0.027,0.022,-0.008,0.708,0.134,-9.723,6.000,
2.981,-0.089,0.713,-0.071,0.026,0.023,-0.008,0.706,0.147,-9.706,6.000,
2.983,-0.087,0.716,-0.071,0.026,0.024,-0.009,0.707,0.159,-9.686,2.000,
2.985,-0.083,0.721,-0.070,0.026,0.026,-0.009,0.709,0.162,-9.662,6.000,
2.987,-0.081,0.722,-0.070,0.026,0.027,-0.009,0.718,0.161,-9.613,2.000,
2.992,-0.073,0.717,-0.068,0.026,0.029,-0.009,0.730,0.177,-9.470,6.000,
2.994,-0.069,0.708,-0.066,0.026,0.030,-0.009,0.744,0.196,-9.373,2.000,
2.996,-0.066,0.694,-0.063,0.025,0.032,-0.009,0.757,0.219,-9.325,6.000,
2.998,-0.065,0.686,-0.062,0.025,0.033,-0.009,0.771,0.242,-9.301,2.000,
3.000,-0.062,0.666,-0.058,0.025,0.034,-0.009,0.788,0.264,-9.298,6.000,
3.002,-0.062,0.655,-0.056,0.025,0.036,-0.010,0.799,0.284,-9.320,2.000,
3.004,-0.059,0.633,-0.051,0.025,0.037,-0.010,0.797,0.304,-9.348,6.000,
3.006,-0.056,0.622,-0.049,0.025,0.038,-0.010,0.792,0.320,-9.368,2.000,
3.008,-0.050,0.602,-0.044,0.025,0.040,-0.010,0.784,0.332,-9.389,6.000,
3.010,-0.047,0.592,-0.042,0.025,0.041,-0.010,0.785,0.337,-9.422,2.000,
3.012,-0.043,0.583,-0.039,0.024,0.042,-0.010,0.795,0.336,-9.454,2.000,
3.016,-0.035,0.557,-0.031,0.024,0.043,-0.010,0.834,0.321,-9.506,6.000,
3.018,-0.029,0.543,-0.025,0.024,0.044,-0.010,0.846,0.310,-9.535,2.000,
3.020,-0.025,0.537,-0.023,0.024,0.045,-0.010,0.861,0.302,-9.562,2.000,
3.022,-0.017,0.528,-0.019,0.024,0.046,-0.010,0.881,0.295,-9.579,2.000,
3.024,-0.014,0.525,-0.017,0.024,0.047,-0.010,0.914,0.291,-9.584,2.000,
3.026,-0.007,0.520,-0.013,0.024,0.048,-0.010,0.951,0.291,-9.577,2.000,
3.028,-0.005,0.517,-0.011,0.024,0.049,-0.010,0.982,0.291,-9.557,6.000,
3.030,-0.002,0.513,-0.007,0.024,0.051,-0.010,1.004,0.296,-9.522,2.000,
3.032,-0.000,0.512,-0.005,0.024,0.052,-0.010,1.015,0.305,-9.487,2.000,
3.034,0.001,0.510,-0.003,0.024,0.053,-0.010,1.019,0.308,-9.474,2.000,
3.036,0.003,0.507,0.001,0.024,0.054,-0.010,1.010,0.305,-9.483,2.000,
3.038,0.004,0.506,0.003,0.024,0.055,-0.010,1.003,0.307,-9.502,2.000,
3.043,0.010,0.500,0.008,0.024,0.056,-0.010,0.998,0.304,-9.507,2.000,
3.045,0.017,0.492,0.011,0.024,0.057,-0.010,0.982,0.282,-9.488,2.000,
3.047,0.019,0.488,0.013,0.024,0.058,-0.010,0.981,0.270,-9.466,2.000,
3.049,0.021,0.484,0.014,0.024,0.059,-0.010,0.982,0.260,-9.430,2.000,
3.051,0.023,0.473,0.016,0.024,0.060,-0.010,0.985,0.251,-9.406,2.000,
3.053,0.023,0.466,0.016,0.024,0.061,-0.010,1.006,0.216,-9.340,3.000,
3.055,0.022,0.451,0.015,0.024,0.061,-0.010,1.032,0.187,-9.304,2.000,
3.057,0.021,0.443,0.013,0.024,0.062,-0.010,1.065,0.159,-9.279,2.000,
3.059,0.018,0.426,0.010,0.024,0.063,-0.010,1.098,0.133,-9.261,2.000,
3.061,0.016,0.417,0.008,0.025,0.064,-0.010,1.128,0.099,-9.248,2.000,
3.063,0.013,0.408,0.006,0.025,0.065,-0.010,1.159,0.071,-9.249,2.000,
3.065,0.007,0.390,0.001,0.025,0.066,-0.010,1.177,0.057,-9.256,3.000,
3.069,-0.002,0.366,-0.003,0.025,0.067,-0.010,1.185,0.043,-9.297,2.000,
3.071,-0.009,0.352,-0.005,0.025,0.067,-0.010,1.190,0.040,-9.316,2.000,
3.073,-0.012,0.346,-0.006,0.025,0.068,-0.010,1.193,0.039,-9.335,2.000,
3.075,-0.014,0.340,-0.007,0.025,0.069,-0.010,1.194,0.046,-9.359,2.000,
3.077,-0.019,0.331,-0.008,0.025,0.069,-0.010,1.203,0.053,-9.389,2.000,
3.079,-0.021,0.327,-0.009,0.025,0.070,-0.010,1.224,0.066,-9.421,2.000,
3.081,-0.026,0.321,-0.009,0.024,0.071,-0.010,1.244,0.092,-9.450,2.000,
3.083,-0.029,0.318,-0.010,0.024,0.071,-0.010,1.253,0.117,-9.477,2.000,
3.085,-0.034,0.311,-0.011,0.024,0.072,-0.010,1.254,0.139,-9.499,2.000,
3.087,-0.036,0.308,-0.012,0.024,0.073,-0.010,1.248,0.154,-9.522,2.000,
3.089,-0.038,0.304,-0.012,0.024,0.073,-0.010,1.238,0.160,-9.539,6.000,
3.094,-0.046,0.284,-0.013,0.024,0.074,-0.010,1.167,0.139,-9.528,2.000,
3.096,-0.048,0.271,-0.012,0.024,0.074,-0.010,1.136,0.132,-9.524,2.000,
3.098,-0.049,0.264,-0.011,0.024,0.075,-0.010,1.109,0.127,-9.521,2.000,
3.100,-0.051,0.248,-0.009,0.024,0.075,-0.010,1.081,0.122,-9.513,6.000,
3.102,-0.051,0.239,-0.008,0.024,0.076,-0.010,1.056,0.115,-9.499,2.000,
3.104,-0.051,0.219,-0.006,0.024,0.076,-0.010,1.033,0.113,-9.483,2.000,
3.106,-0.051,0.209,-0.006,0.024,0.077,-0.010,1.013,0.114,-9.468,6.000,
3.108,-0.050,0.198,-0.005,0.023,0.077,-0.010,0.997,0.119,-9.454,2.000,
3.110,-0.046,0.175,-0.004,0.023,0.078,-0.010,0.984,0.131,-9.443,6.000,
3.112,-0.043,0.164,-0.004,0.023,0.078,-0.010,0.977,0.140,-9.432,2.000,
3.114,-0.035,0.139,-0.003,0.023,0.078,-0.011,0.975,0.141,-9.426,2.000,
3.116,-0.031,0.126,-0.002,0.023,0.079,-0.011,0.979,0.140,-9.434,2.000,
3.120,-0.017,0.085,0.002,0.023,0.079,-0.011,0.985,0.130,-9.462,6.000,
3.122,-0.009,0.053,0.004,0.023,0.079,-0.011,0.972,0.125,-9.457,2.000,
3.124,-0.004,0.037,0.004,0.023,0.079,-0.010,0.970,0.121,-9.452,2.000,
3.126,0.005,0.003,0.002,0.023,0.079,-0.010,0.984,0.119,-9.450,0.000,
3.128,0.010,-0.014,0.002,0.023,0.079,-0.010,1.003,0.113,-9.450,2.000,
3.130,0.015,-0.031,0.001,0.023,0.079,-0.010,1.019,0.113,-9.456,0.000,
3.132,0.025,-0.063,0.001,0.023,0.079,-0.010,1.036,0.121,-9.464,0.000,
3.134,0.030,-0.078,0.001,0.023,0.079,-0.010,1.051,0.129,-9.471,8.000,
3.136,0.039,-0.107,0.001,0.023,0.079,-0.010,1.065,0.131,-9.478,0.000,
3.138,0.043,-0.120,0.002,0.023,0.079,-0.010,1.080,0.136,-9.471,9.000,
3.140,0.050,-0.145,0.003,0.023,0.078,-0.010,1.098,0.137,-9.452,0.000,
3.142,0.054,-0.156,0.003,0.023,0.078,-0.010,1.116,0.142,-9.435,8.000,
3.147,0.062,-0.187,0.005,0.024,0.078,-0.010,1.175,0.151,-9.455,9.000,
3.149,0.068,-0.205,0.006,0.024,0.077,-0.010,1.221,0.162,-9.491,8.000,
3.151,0.073,-0.223,0.008,0.024,0.077,-0.010,1.242,0.171,-9.520,9.000,
3.153,0.076,-0.232,0.008,0.024,0.077,-0.010,1.267,0.174,-9.547,8.000,
3.155,0.080,-0.250,0.010,0.024,0.076,-0.010,1.289,0.170,-9.555,9.000,
3.157,0.082,-0.259,0.011,0.024,0.076,-0.010,1.299,0.168,-9.549,8.000,
3.159,0.085,-0.277,0.011,0.024,0.075,-0.010,1.298,0.178,-9.536,9.000,
3.161,0.087,-0.286,0.012,0.025,0.075,-0.010,1.292,0.193,-9.521,9.000,
3.163,0.090,-0.304,0.013,0.025,0.074,-0.010,1.291,0.209,-9.506,8.000,
3.165,0.091,-0.312,0.014,0.025,0.073,-0.010,1.288,0.221,-9.497,9.000,
3.167,0.094,-0.331,0.016,0.025,0.073,-0.010,1.276,0.227,-9.485,9.000,
3.171,0.097,-0.351,0.019,0.025,0.072,-0.010,1.207,0.234,-9.440,8.000,
3.173,0.100,-0.372,0.023,0.026,0.071,-0.010,1.164,0.232,-9.414,9.000,
3.175,0.102,-0.384,0.025,0.026,0.071,-0.010,1.118,0.225,-9.398,9.000,
3.177,0.106,-0.406,0.030,0.026,0.070,-0.010,1.079,0.215,-9.384,9.000,
3.179,0.108,-0.418,0.032,0.026,0.069,-0.010,1.056,0.201,-9.369,9.000,
3.181,0.111,-0.440,0.036,0.026,0.068,-0.010,1.038,0.184,-9.364,9.000,
3.183,0.112,-0.451,0.038,0.027,0.067,-0.010,1.025,0.167,-9.375,8.000,
3.185,0.114,-0.474,0.041,0.027,0.066,-0.010,1.018,0.153,-9.401,9.000,
3.187,0.115,-0.486,0.042,0.027,0.065,-0.010,1.016,0.145,-9.425,9.000,
3.189,0.118,-0.511,0.044,0.027,0.065,-0.010,1.019,0.139,-9.442,9.000,
3.191,0.119,-0.524,0.045,0.028,0.064,-0.010,1.019,0.127,-9.457,9.000,
3.193,0.120,-0.537,0.046,0.028,0.062,-0.009,1.014,0.113,-9.472,9.000,
3.198,0.123,-0.579,0.048,0.028,0.061,-0.009,0.989,0.092,-9.476,9.000,
3.200,0.127,-0.624,0.050,0.028,0.060,-0.009,0.951,0.094,-9.481,9.000,
3.202,0.128,-0.640,0.052,0.029,0.059,-0.009,0.922,0.097,-9.494,9.000,
3.204,0.130,-0.656,0.053,0.029,0.058,-0.009,0.893,0.100,-9.505,9.000,
3.206,0.132,-0.688,0.057,0.029,0.056,-0.009,0.874,0.111,-9.511,9.000,
3.208,0.133,-0.704,0.058,0.029,0.055,-0.009,0.868,0.122,-9.517,9.000,
3.210,0.136,-0.737,0.061,0.030,0.054,-0.009,0.867,0.131,-9.513,9.000,
3.212,0.138,-0.753,0.062,0.030,0.052,-0.009,0.864,0.133,-9.515,9.000,
3.214,0.141,-0.783,0.064,0.030,0.051,-0.008,0.862,0.124,-9.520,9.000,
3.216,0.143,-0.797,0.065,0.030,0.049,-0.008,0.868,0.119,-9.522,9.000,
3.218,0.146,-0.823,0.066,0.031,0.047,-0.008,0.878,0.123,-9.523,9.000,
3.222,0.148,-0.846,0.066,0.031,0.046,-0.008,0.879,0.113,-9.534,9.000,
3.224,0.150,-0.868,0.066,0.031,0.044,-0.008,0.869,0.103,-9.535,9.000,
3.226,0.150,-0.878,0.065,0.032,0.042,-0.008,0.854,0.100,-9.538,9.000,
3.228,0.151,-0.898,0.062,0.032,0.041,-0.008,0.834,0.099,-9.532,9.000,
3.230,0.150,-0.908,0.060,0.032,0.039,-0.008,0.807,0.105,-9.523,9.000,
3.232,0.149,-0.927,0.058,0.032,0.037,-0.007,0.768,0.112,-9.516,9.000,
3.234,0.148,-0.936,0.057,0.033,0.035,-0.007,0.723,0.113,-9.507,9.000,
3.236,0.144,-0.955,0.055,0.033,0.033,-0.007,0.686,0.113,-9.490,9.000,
3.238,0.141,-0.966,0.054,0.033,0.031,-0.007,0.650,0.113,-9.456,9.000,
3.240,0.136,-0.987,0.053,0.034,0.029,-0.007,0.606,0.108,-9.410,9.000,
3.242,0.133,-0.998,0.052,0.034,0.027,-0.007,0.562,0.095,-9.373,9.000,
3.244,0.127,-1.019,0.050,0.034,0.026,-0.007,0.532,0.075,-9.345,9.000,
3.249,0.118,-1.052,0.047,0.034,0.023,-0.007,0.490,0.029,-9.309,9.000,
3.251,0.112,-1.073,0.046,0.035,0.021,-0.007,0.471,0.015,-9.316,9.000,
3.253,0.109,-1.083,0.046,0.035,0.019,-0.007,0.443,0.011,-9.339,9.000,
3.255,0.103,-1.103,0.044,0.035,0.017,-0.006,0.424,0.018,-9.353,9.000,
3.257,0.100,-1.112,0.043,0.035,0.015,-0.006,0.409,0.031,-9.366,9.000,
3.259,0.093,-1.128,0.041,0.036,0.013,-0.006,0.392,0.038,-9.375,9.000,
3.261,0.090,-1.136,0.039,0.036,0.010,-0.006,0.372,0.036,-9.378,9.000,
3.263,0.086,-1.142,0.038,0.036,0.008,-0.006,0.354,0.029,-9.386,9.000,
3.265,0.078,-1.152,0.035,0.036,0.006,-0.006,0.340,0.016,-9.410,8.000,
3.267,0.074,-1.156,0.034,0.036,0.004,-0.006,0.325,0.001,-9.441,9.000,
3.269,0.064,-1.160,0.033,0.036,0.001,-0.006,0.322,-0.014,-9.471,9.000,
3.271,0.059,-1.160,0.033,0.037,-0.001,-0.006,0.322,-0.027,-9.504,8.000,
3.275,0.043,-1.155,0.034,0.037,-0.003,-0.006,0.323,-0.033,-9.549,9.000,
3.277,0.030,-1.147,0.034,0.037,-0.006,-0.006,0.323,-0.025,-9.564,9.000,
3.279,0.024,-1.142,0.034,0.037,-0.008,-0.006,0.323,-0.012,-9.588,8.000,
3.281,0.011,-1.128,0.034,0.037,-0.010,-0.006,0.322,0.005,-9.619,8.000,
3.283,0.005,-1.120,0.034,0.037,-0.013,-0.005,0.319,0.024,-9.651,9.000,
3.285,-0.006,-1.103,0.034,0.037,-0.015,-0.005,0.300,0.047,-9.684,8.000,
3.287,-0.011,-1.094,0.034,0.037,-0.017,-0.005,0.265,0.067,-9.713,8.000,
3.289,-0.016,-1.085,0.035,0.037,-0.019,-0.005,0.223,0.087,-9.742,8.000,
3.291,-0.023,-1.067,0.037,0.037,-0.021,-0.005,0.182,0.101,-9.755,8.000,
3.293,-0.026,-1.059,0.038,0.037,-0.024,-0.005,0.139,0.092,-9.764,8.000,
3.295,-0.028,-1.044,0.040,0.037,-0.026,-0.005,0.096,0.077,-9.755,8.000,
3.300,-0.021,-1.026,0.041,0.037,-0.028,-0.005,0.029,0.067,-9.703,12.000,
3.302,-0.017,-1.024,0.041,0.037,-0.030,-0.005,-0.028,0.079,-9.658,8.000,
3.304,-0.014,-1.024,0.041,0.037,-0.032,-0.005,-0.068,0.085,-9.633,8.000,
3.306,-0.007,-1.025,0.041,0.037,-0.034,-0.005,-0.118,0.086,-9.614,8.000,
3.308,-0.004,-1.028,0.041,0.037,-0.036,-0.005,-0.172,0.090,-9.596,8.000,
3.310,0.003,-1.035,0.040,0.037,-0.038,-0.005,-0.212,0.097,-9.589,8.000,
3.312,0.008,-1.039,0.039,0.037,-0.040,-0.004,-0.236,0.109,-9.595,8.000,
3.314,0.017,-1.050,0.038,0.037,-0.042,-0.004,-0.261,0.123,-9.611,8.000,
3.316,0.021,-1.056,0.038,0.037,-0.044,-0.004,-0.283,0.132,-9.630,8.000,
3.318,0.030,-1.070,0.039,0.037,-0.046,-0.004,-0.291,0.133,-9.653,8.000,
3.320,0.034,-1.076,0.040,0.037,-0.048,-0.004,-0.282,0.125,-9.666,8.000,
3.322,0.042,-1.089,0.043,0.037,-0.051,-0.004,-0.267,0.119,-9.672,9.000,
3.326,0.049,-1.107,0.048,0.037,-0.053,-0.004,-0.237,0.106,-9.665,8.000,
3.328,0.051,-1.114,0.050,0.037,-0.055,-0.004,-0.228,0.102,-9.661,8.000,
3.330,0.052,-1.120,0.052,0.037,-0.057,-0.004,-0.226,0.100,-9.669,9.000,
3.332,0.053,-1.134,0.056,0.037,-0.059,-0.004,-0.231,0.102,-9.666,8.000,
3.334,0.053,-1.141,0.058,0.037,-0.062,-0.004,-0.251,0.106,-9.660,9.000,
3.336,0.051,-1.155,0.064,0.037,-0.064,-0.003,-0.278,0.114,-9.664,8.000,
3.338,0.049,-1.162,0.067,0.037,-0.066,-0.003,-0.306,0.114,-9.667,9.000,
3.340,0.044,-1.177,0.073,0.038,-0.069,-0.003,-0.335,0.087,-9.656,8.000,
3.342,0.041,-1.185,0.075,0.038,-0.071,-0.003,-0.361,0.046,-9.630,9.000,
3.344,0.035,-1.204,0.077,0.038,-0.073,-0.003,-0.385,0.016,-9.602,8.000,
3.346,0.033,-1.214,0.077,0.038,-0.076,-0.003,-0.412,-0.002,-9.591,9.000,
3.348,0.028,-1.234,0.075,0.038,-0.078,-0.003,-0.432,-0.016,-9.606,8.000,
3.353,0.023,-1.261,0.071,0.038,-0.081,-0.002,-0.477,-0.027,-9.656,8.000,
3.355,0.020,-1.276,0.069,0.038,-0.083,-0.002,-0.494,-0.030,-9.651,9.000,
3.357,0.019,-1.283,0.067,0.038,-0.086,-0.002,-0.508,-0.044,-9.636,8.000,
3.359,0.018,-1.289,0.066,0.038,-0.088,-0.002,-0.528,-0.063,-9.619,8.000,
3.361,0.017,-1.298,0.063,0.038,-0.091,-0.002,-0.553,-0.079,-9.599,8.000,
3.363,0.017,-1.302,0.061,0.038,-0.093,-0.002,-0.587,-0.105,-9.569,9.000,
3.365,0.018,-1.308,0.056,0.038,-0.096,-0.002,-0.621,-0.123,-9.528,8.000,
3.367,0.020,-1.311,0.053,0.038,-0.099,-0.002,-0.644,-0.125,-9.481,8.000,
3.369,0.025,-1.314,0.044,0.038,-0.101,-0.001,-0.661,-0.115,-9.441,8.000,
3.371,0.027,-1.316,0.040,0.038,-0.104,-0.001,-0.678,-0.096,-9.415,8.000,
3.373,0.029,-1.318,0.032,0.038,-0.107,-0.001,-0.687,-0.069,-9.406,9.000,
3.377,0.027,-1.321,0.023,0.038,-0.109,-0.001,-0.723,-0.019,-9.433,8.000,
3.379,0.026,-1.321,0.021,0.038,-0.112,-0.001,-0.753,0.003,-9.464,8.000,
3.381,0.024,-1.319,0.020,0.039,-0.114,-0.001,-0.785,0.024,-9.500,9.000,
3.383,0.021,-1.313,0.018,0.039,-0.117,-0.001,-0.825,0.034,-9.547,8.000,
3.385,0.019,-1.308,0.017,0.039,-0.120,-0.001,-0.865,0.037,-9.599,8.000,
3.387,0.017,-1.293,0.017,0.039,-0.122,-0.001,-0.902,0.039,-9.639,8.000,
3.389,0.016,-1.284,0.017,0.039,-0.125,-0.001,-0.940,0.037,-9.676,9.000,
3.391,0.016,-1.263,0.016,0.039,-0.128,-0.001,-0.980,0.029,-9.714,8.000,
3.393,0.016,-1.250,0.016,0.039,-0.130,-0.001,-1.011,0.021,-9.743,8.000,
3.395,0.017,-1.221,0.016,0.039,-0.133,-0.001,-1.033,0.021,-9.765,8.000,
3.397,0.018,-1.205,0.016,0.039,-0.135,-0.001,-1.046,0.035,-9.775,8.000,
3.399,0.022,-1.172,0.013,0.039,-0.137,-0.001,-1.060,0.055,-9.773,9.000,
3.404,0.027,-1.117,0.008,0.039,-0.140,-0.001,-1.097,0.090,-9.771,8.000,
3.406,0.030,-1.079,0.006,0.039,-0.142,-0.001,-1.099,0.101,-9.756,8.000,
3.408,0.030,-1.059,0.005,0.039,-0.144,-0.001,-1.099,0.112,-9.735,8.000,
3.410,0.031,-1.020,0.004,0.039,-0.146,-0.001,-1.101,0.121,-9.717,9.000,
3.412,0.030,-1.000,0.003,0.039,-0.148,-0.001,-1.102,0.119,-9.695,8.000,
3.414,0.029,-0.962,0.002,0.039,-0.150,-0.001,-1.103,0.116,-9.653,8.000,
3.416,0.028,-0.944,0.002,0.039,-0.152,-0.001,-1.102,0.121,-9.605,9.000,
3.418,0.028,-0.926,0.002,0.039,-0.154,-0.001,-1.103,0.133,-9.569,8.000,
3.420,0.027,-0.890,0.003,0.039,-0.156,-0.001,-1.109,0.151,-9.535,8.000,
3.422,0.026,-0.873,0.004,0.039,-0.158,-0.001,-1.123,0.166,-9.508,8.000,
3.424,0.023,-0.838,0.007,0.040,-0.159,-0.001,-1.143,0.176,-9.493,9.000,
3.426,0.021,-0.822,0.009,0.040,-0.161,-0.001,-1.169,0.193,-9.476,8.000,
3.430,0.011,-0.776,0.015,0.040,-0.163,-0.001,-1.234,0.231,-9.463,8.000,
3.432,0.004,-0.748,0.019,0.040,-0.164,-0.001,-1.268,0.236,-9.477,9.000,
3.434,0.001,-0.736,0.021,0.040,-0.166,-0.001,-1.292,0.225,-9.493,8.000,
3.436,-0.004,-0.712,0.025,0.040,-0.167,-0.001,-1.298,0.206,-9.516,8.000,
3.438,-0.007,-0.701,0.027,0.040,-0.169,-0.000,-1.298,0.181,-9.550,8.000,
3.440,-0.014,-0.679,0.031,0.040,-0.170,-0.000,-1.312,0.150,-9.587,8.000,
3.442,-0.018,-0.669,0.032,0.040,-0.171,-0.000,-1.329,0.122,-9.616,8.000,
3.444,-0.021,-0.660,0.033,0.040,-0.173,-0.000,-1.336,0.099,-9.637,8.000,
3.446,-0.028,-0.641,0.034,0.040,-0.174,-0.000,-1.332,0.090,-9.647,8.000,
3.448,-0.032,-0.632,0.034,0.039,-0.175,-0.000,-1.321,0.091,-9.647,12.000,
3.450,-0.038,-0.615,0.034,0.039,-0.177,-0.000,-1.306,0.103,-9.654,8.000,
3.455,-0.046,-0.587,0.036,0.039,-0.178,-0.000,-1.271,0.117,-9.723,8.000,
3.457,-0.051,-0.568,0.039,0.039,-0.179,0.000,-1.275,0.117,-9.757,8.000,
3.459,-0.054,-0.557,0.041,0.039,-0.180,0.000,-1.286,0.114,-9.780,12.000,
3.461,-0.061,-0.537,0.045,0.039,-0.181,0.000,-1.292,0.108,-9.790,8.000,
3.463,-0.064,-0.526,0.046,0.039,-0.182,0.000,-1.302,0.098,-9.800,12.000,
3.465,-0.069,-0.506,0.048,0.039,-0.183,0.000,-1.312,0.085,-9.816,8.000,
3.467,-0.071,-0.495,0.047,0.039,-0.184,0.000,-1.331,0.073,-9.830,12.000,
3.469,-0.074,-0.476,0.045,0.039,-0.185,0.001,-1.354,0.064,-9.829,8.000,
3.471,-0.074,-0.467,0.044,0.038,-0.186,0.001,-1.386,0.066,-9.809,12.000,
3.473,-0.073,-0.451,0.040,0.038,-0.187,0.001,-1.425,0.070,-9.776,12.000,
3.475,-0.071,-0.444,0.038,0.038,-0.188,0.001,-1.468,0.065,-9.734,8.000,
3.477,-0.067,-0.431,0.033,0.038,-0.189,0.001,-1.505,0.056,-9.692,12.000,
3.481,-0.061,-0.423,0.029,0.038,-0.190,0.001,-1.579,0.056,-9.626,12.000,
3.483,-0.055,-0.417,0.026,0.038,-0.191,0.001,-1.615,0.057,-9.596,8.000,
3.485,-0.052,-0.416,0.024,0.038,-0.192,0.001,-1.643,0.058,-9.555,12.000,
3.487,-0.047,-0.416,0.022,0.037,-0.192,0.001,-1.677,0.060,-9.502,8.000,
3.489,-0.046,-0.417,0.022,0.037,-0.193,0.001,-1.718,0.052,-9.450,12.000,
3.491,-0.043,-0.422,0.022,0.037,-0.194,0.001,-1.758,0.043,-9.408,8.000,
3.493,-0.042,-0.425,0.023,0.037,-0.195,0.001,-1.786,0.031,-9.390,8.000,
3.495,-0.041,-0.434,0.024,0.037,-0.196,0.001,-1.815,0.016,-9.396,12.000,
3.497,-0.040,-0.440,0.025,0.037,-0.197,0.001,-1.849,0.003,-9.416,8.000,
3.499,-0.036,-0.453,0.026,0.037,-0.198,0.001,-1.879,-0.010,-9.447,12.000,
3.501,-0.033,-0.461,0.026,0.037,-0.198,0.001,-1.903,-0.021,-9.478,8.000,
3.506,-0.017,-0.491,0.023,0.037,-0.199,0.002,-1.929,-0.030,-9.566,8.000,
3.508,-0.012,-0.498,0.023,0.037,-0.200,0.002,-1.938,-0.033,-9.595,8.000,
3.510,-0.004,-0.511,0.022,0.037,-0.201,0.002,-1.943,-0.037,-9.623,12.000,
3.512,-0.001,-0.517,0.022,0.037,-0.202,0.002,-1.944,-0.039,-9.642,8.000,
3.514,0.004,-0.527,0.022,0.037,-0.203,0.002,-1.948,-0.026,-9.649,8.000,
3.516,0.006,-0.532,0.022,0.037,-0.205,0.002,-1.942,-0.007,-9.641,8.000,
3.518,0.008,-0.537,0.021,0.037,-0.206,0.002,-1.925,0.002,-9.626,8.000,
3.520,0.012,-0.545,0.020,0.037,-0.207,0.002,-1.912,-0.005,-9.611,8.000,
3.522,0.014,-0.550,0.019,0.037,-0.208,0.002,-1.902,-0.013,-9.600,8.000,
3.524,0.018,-0.558,0.018,0.037,-0.209,0.002,-1.887,-0.023,-9.579,8.000,
3.526,0.021,-0.561,0.018,0.037,-0.210,0.002,-1.873,-0.036,-9.547,9.000,
3.528,0.025,-0.567,0.018,0.037,-0.211,0.002,-1.865,-0.041,-9.514,8.000,
3.532,0.031,-0.573,0.018,0.037,-0.212,0.002,-1.848,-0.042,-9.455,8.000,
3.534,0.033,-0.575,0.018,0.037,-0.213,0.002,-1.836,-0.037,-9.429,8.000,
3.536,0.036,-0.577,0.017,0.037,-0.214,0.002,-1.826,-0.034,-9.412,9.000,
3.538,0.038,-0.578,0.016,0.037,-0.216,0.002,-1.817,-0.030,-9.405,8.000,
3.540,0.040,-0.577,0.016,0.037,-0.217,0.002,-1.806,-0.030,-9.416,8.000,
3.542,0.045,-0.572,0.014,0.037,-0.218,0.002,-1.798,-0.028,-9.439,9.000,
3.544,0.048,-0.568,0.013,0.037,-0.219,0.002,-1.795,-0.028,-9.473,8.000,
3.546,0.053,-0.558,0.012,0.038,-0.220,0.002,-1.798,-0.034,-9.511,9.000,
3.548,0.056,-0.551,0.011,0.038,-0.221,0.002,-1.805,-0.038,-9.539,8.000,
3.550,0.059,-0.536,0.010,0.038,-0.222,0.002,-1.819,-0.034,-9.567,9.000,
3.552,0.060,-0.526,0.009,0.038,-0.224,0.002,-1.837,-0.022,-9.593,9.000,
3.554,0.061,-0.506,0.009,0.038,-0.225,0.002,-1.862,-0.006,-9.611,8.000,
3.559,0.062,-0.471,0.006,0.038,-0.226,0.002,-1.949,0.018,-9.583,9.000,
3.561,0.060,-0.447,0.005,0.038,-0.227,0.002,-1.978,0.016,-9.555,8.000,
3.563,0.057,-0.435,0.004,0.038,-0.227,0.002,-1.997,0.012,-9.523,9.000,
3.565,0.051,-0.410,0.003,0.038,-0.228,0.002,-2.009,0.013,-9.481,9.000,
3.567,0.047,-0.398,0.002,0.039,-0.229,0.002,-2.014,0.014,-9.435,8.000,
3.569,0.038,-0.376,-0.001,0.039,-0.230,0.002,-2.013,0.015,-9.391,9.000,
3.571,0.033,-0.366,-0.002,0.039,-0.231,0.002,-2.004,0.025,-9.348,8.000,
3.573,0.024,-0.347,-0.005,0.039,-0.231,0.002,-2.000,0.047,-9.318,9.000,
3.575,0.019,-0.339,-0.005,0.039,-0.232,0.002,-1.999,0.069,-9.306,8.000,
3.577,0.015,-0.332,-0.006,0.039,-0.233,0.002,-2.012,0.086,-9.310,9.000,
3.579,0.007,-0.319,-0.007,0.039,-0.233,0.002,-2.030,0.101,-9.310,8.000,
3.583,-0.003,-0.305,-0.008,0.039,-0.234,0.002,-2.064,0.107,-9.321,8.000,
3.585,-0.006,-0.302,-0.008,0.039,-0.235,0.002,-2.063,0.101,-9.334,8.000,
3.587,-0.011,-0.297,-0.010,0.039,-0.235,0.002,-2.055,0.098,-9.357,8.000,
3.589,-0.013,-0.295,-0.011,0.039,-0.236,0.002,-2.044,0.095,-9.385,8.000,
3.591,-0.016,-0.293,-0.014,0.039,-0.236,0.002,-2.043,0.098,-9.395,8.000,
3.593,-0.017,-0.293,-0.015,0.039,-0.237,0.002,-2.048,0.095,-9.384,8.000,
3.595,-0.018,-0.293,-0.018,0.039,-0.238,0.002,-2.049,0.088,-9.351,8.000,
3.597,-0.018,-0.293,-0.019,0.039,-0.238,0.002,-2.045,0.086,-9.320,8.000,
3.599,-0.019,-0.295,-0.019,0.039,-0.239,0.002,-2.036,0.088,-9.288,8.000,
3.601,-0.019,-0.296,-0.018,0.039,-0.239,0.002,-2.029,0.095,-9.266,8.000,
3.603,-0.019,-0.298,-0.016,0.039,-0.240,0.002,-2.027,0.103,-9.256,8.000,
3.605,-0.020,-0.299,-0.015,0.039,-0.241,0.002,-2.034,0.113,-9.248,12.000,
3.610,-0.019,-0.303,-0.010,0.039,-0.241,0.002,-2.063,0.118,-9.233,8.000,
3.612,-0.017,-0.306,-0.006,0.039,-0.242,0.002,-2.076,0.133,-9.219,8.000,
3.614,-0.015,-0.308,-0.004,0.039,-0.242,0.002,-2.080,0.140,-9.205,8.000,
3.616,-0.012,-0.310,-0.001,0.039,-0.243,0.002,-2.078,0.141,-9.189,8.000,
3.618,-0.007,-0.312,0.002,0.039,-0.244,0.002,-2.068,0.140,-9.179,8.000,
3.620,-0.005,-0.312,0.003,0.038,-0.244,0.002,-2.051,0.131,-9.193,8.000,
3.622,-0.003,-0.312,0.004,0.038,-0.245,0.002,-2.032,0.121,-9.228,8.000,
3.624,0.002,-0.311,0.006,0.038,-0.245,0.002,-2.010,0.117,-9.269,8.000,
3.626,0.005,-0.309,0.006,0.038,-0.246,0.002,-1.995,0.116,-9.309,8.000,
3.628,0.009,-0.305,0.008,0.038,-0.247,0.002,-1.985,0.116,-9.337,8.000,
3.630,0.011,-0.302,0.009,0.039,-0.247,0.002,-1.971,0.127,-9.352,8.000,
3.632,0.014,-0.294,0.012,0.039,-0.248,0.002,-1.950,0.146,-9.359,8.000,
3.636,0.017,-0.277,0.016,0.039,-0.249,0.002,-1.946,0.183,-9.373,9.000,
3.638,0.017,-0.270,0.017,0.039,-0.249,0.002,-1.953,0.188,-9.386,8.000,
3.640,0.017,-0.256,0.018,0.039,-0.250,0.002,-1.970,0.185,-9.396,8.000,
3.642,0.017,-0.248,0.019,0.039,-0.250,0.002,-1.996,0.174,-9.404,8.000,
3.644,0.017,-0.232,0.021,0.039,-0.251,0.002,-2.030,0.146,-9.426,9.000,
3.646,0.018,-0.224,0.021,0.039,-0.251,0.002,-2.068,0.115,-9.470,8.000,
3.648,0.018,-0.215,0.021,0.039,-0.252,0.002,-2.096,0.087,-9.512,8.000,
3.650,0.020,-0.199,0.019,0.039,-0.252,0.002,-2.116,0.059,-9.546,8.000,
3.652,0.020,-0.191,0.017,0.039,-0.252,0.002,-2.140,0.040,-9.579,8.000,
3.654,0.022,-0.175,0.012,0.039,-0.253,0.002,-2.165,0.022,-9.613,9.000,
3.656,0.023,-0.168,0.009,0.039,-0.253,0.002,-2.181,0.008,-9.645,8.000,
3.661,0.029,-0.145,-0.001,0.039,-0.253,0.002,-2.212,0.002,-9.670,8.000,
3.663,0.034,-0.130,-0.006,0.039,-0.254,0.002,-2.214,0.007,-9.644,9.000,
3.665,0.039,-0.116,-0.011,0.039,-0.254,0.002,-2.206,0.010,-9.616,8.000,
3.667,0.041,-0.110,-0.013,0.039,-0.254,0.002,-2.194,0.006,-9.590,8.000,
3.669,0.046,-0.099,-0.016,0.039,-0.254,0.002,-2.180,0.003,-9.572,9.000,
3.671,0.048,-0.095,-0.017,0.039,-0.255,0.002,-2.167,0.004,-9.563,8.000,
3.673,0.051,-0.087,-0.020,0.039,-0.255,0.002,-2.156,0.006,-9.566,9.000,
3.675,0.053,-0.082,-0.021,0.040,-0.255,0.002,-2.149,0.010,-9.565,8.000,
3.677,0.056,-0.072,-0.022,0.040,-0.255,0.002,-2.149,0.013,-9.559,9.000,
3.679,0.056,-0.066,-0.022,0.040,-0.255,0.002,-2.145,0.017,-9.552,9.000,
3.681,0.056,-0.052,-0.021,0.040,-0.255,0.002,-2.143,0.020,-9.548,8.000,
3.683,0.055,-0.044,-0.020,0.040,-0.255,0.002,-2.140,0.021,-9.549,9.000,
3.687,0.049,-0.022,-0.017,0.040,-0.256,0.002,-2.135,0.018,-9.555,9.000,
3.689,0.046,-0.014,-0.016,0.040,-0.256,0.002,-2.143,0.028,-9.563,8.000,
3.691,0.040,0.002,-0.013,0.040,-0.256,0.002,-2.152,0.036,-9.569,1.000,
3.693,0.037,0.010,-0.012,0.040,-0.256,0.002,-2.166,0.048,-9.572,8.000,
3.695,0.032,0.025,-0.011,0.040,-0.256,0.002,-2.181,0.064,-9.565,1.000,
3.697,0.029,0.033,-0.011,0.041,-0.256,0.002,-2.193,0.077,-9.546,0.000,
3.699,0.026,0.040,-0.010,0.041,-0.256,0.002,-2.195,0.077,-9.531,1.000,
3.701,0.022,0.054,-0.009,0.041,-0.255,0.002,-2.188,0.075,-9.516,0.000,
3.703,0.018,0.067,-0.006,0.041,-0.255,0.002,-2.179,0.083,-9.499,0.000,
3.705,0.017,0.073,-0.006,0.041,-0.255,0.002,-2.166,0.098,-9.493,1.000,
3.707,0.017,0.080,-0.005,0.041,-0.255,0.002,-2.152,0.106,-9.491,2.000,
3.709,0.016,0.092,-0.004,0.041,-0.255,0.002,-2.149,0.105,-9.484,0.000,
3.714,0.016,0.108,-0.004,0.041,-0.255,0.002,-2.177,0.080,-9.462,2.000,
3.716,0.017,0.119,-0.003,0.041,-0.254,0.002,-2.182,0.071,-9.453,3.000,
3.718,0.017,0.131,-0.003,0.041,-0.254,0.002,-2.185,0.050,-9.444,0.000,
3.720,0.017,0.137,-0.003,0.041,-0.254,0.002,-2.189,0.016,-9.437,2.000,
3.722,0.017,0.143,-0.004,0.041,-0.254,0.002,-2.200,-0.003,-9.437,2.000,
3.724,0.017,0.156,-0.005,0.041,-0.253,0.002,-2.206,-0.011,-9.436,3.000,
3.726,0.018,0.162,-0.006,0.041,-0.253,0.002,-2.222,-0.017,-9.450,2.000,
3.728,0.020,0.175,-0.009,0.041,-0.253,0.002,-2.228,-0.011,-9.458,2.000,
3.730,0.021,0.182,-0.011,0.041,-0.252,0.002,-2.241,0.011,-9.460,2.000,
3.732,0.025,0.196,-0.012,0.041,-0.252,0.002,-2.241,0.018,-9.454,3.000,
3.734,0.027,0.203,-0.013,0.041,-0.252,0.002,-2.229,0.038,-9.446,2.000,
3.739,0.033,0.228,-0.013,0.041,-0.251,0.002,-2.174,0.069,-9.421,2.000,
3.741,0.034,0.233,-0.012,0.041,-0.251,0.002,-2.146,0.075,-9.409,2.000,
3.743,0.036,0.242,-0.013,0.041,-0.250,0.002,-2.130,0.079,-9.402,3.000,
3.745,0.036,0.245,-0.014,0.042,-0.250,0.002,-2.125,0.079,-9.390,2.000,
3.747,0.037,0.250,-0.016,0.042,-0.249,0.002,-2.120,0.080,-9.375,3.000,
3.749,0.037,0.252,-0.017,0.042,-0.249,0.002,-2.114,0.088,-9.358,2.000,
3.751,0.037,0.254,-0.020,0.042,-0.248,0.002,-2.106,0.092,-9.343,3.000,
3.753,0.037,0.255,-0.021,0.042,-0.248,0.001,-2.094,0.089,-9.326,2.000,
3.755,0.036,0.255,-0.022,0.042,-0.247,0.001,-2.080,0.082,-9.306,3.000,
